{"_links": {"priorVersion": {"href": "/mdr/ct/packages/adamct-2025-03-28", "title": "ADaM Controlled Terminology Package 59 Effective 2025-03-28", "type": "Terminology"}, "self": {"href": "/mdr/ct/packages/adamct-2025-09-26", "title": "ADaM Controlled Terminology Package 60 Effective 2025-09-26", "type": "Terminology"}}, "codelists": [{"conceptId": "C208382", "definition": "A parameter code codelist for the Acute Physiology and Chronic Health Evaluation II Clinical Classification (APACHE II) to support the calculation of total score in ADaM.", "extensible": "false", "name": "Acute Physiology and Chronic Health Evaluation II Clinical Classification Parameter Code", "preferredTerm": "CDISC ADaM Acute Physiology and Chronic Health Evaluation II Clinical Classification Parameter Code Terminology", "submissionValue": "APCH1PC", "synonyms": ["Acute Physiology and Chronic Health Evaluation II Clinical Classification Parameter Code"], "terms": [{"conceptId": "C209274", "definition": "Acute Physiology and Chronic Health Evaluation II - Total acute physiology score used for analysis.", "preferredTerm": "APACHE II - A: Total Acute Physiology Score - Analysis", "submissionValue": "APCH1TPS", "synonyms": ["APCH1-A: Total Acute Physiology Score - Analysis"]}, {"conceptId": "C209275", "definition": "Acute Physiology and Chronic Health Evaluation II - Total score used for analysis.", "preferredTerm": "APACHE II - Total APACHE II Score - Analysis", "submissionValue": "APCH1TS", "synonyms": ["APCH1-Total APACHE II Score - Analysis"]}]}, {"conceptId": "C208381", "definition": "A parameter name codelist for the Acute Physiology and Chronic Health Evaluation II Clinical Classification (APACHE II) to support the calculation of total score in ADaM.", "extensible": "false", "name": "Acute Physiology and Chronic Health Evaluation II Clinical Classification Parameter Name", "preferredTerm": "CDISC ADaM Acute Physiology and Chronic Health Evaluation II Clinical Classification Parameter Name Terminology", "submissionValue": "APCH1PN", "synonyms": ["Acute Physiology and Chronic Health Evaluation II Clinical Classification Parameter Name"], "terms": [{"conceptId": "C209274", "definition": "Acute Physiology and Chronic Health Evaluation II - Total acute physiology score used for analysis.", "preferredTerm": "APACHE II - A: Total Acute Physiology Score - Analysis", "submissionValue": "APCH1-A: Total Acute Physiology Score - Analysis", "synonyms": ["APCH1-A: Total Acute Physiology Score - Analysis"]}, {"conceptId": "C209275", "definition": "Acute Physiology and Chronic Health Evaluation II - Total score used for analysis.", "preferredTerm": "APACHE II - Total APACHE II Score - Analysis", "submissionValue": "APCH1-Total APACHE II Score - Analysis", "synonyms": ["APCH1-Total APACHE II Score - Analysis"]}]}, {"conceptId": "C204411", "definition": "A terminology codelist containing the stratum values for analysis.", "extensible": "true", "name": "Analysis Stratum", "preferredTerm": "CDISC ADaM Analysis Stratum Terminology", "submissionValue": "STRATA", "synonyms": ["Analysis Stratum"], "terms": [{"conceptId": "C25150", "definition": "How long something has existed; elapsed time since birth. (NCI)", "preferredTerm": "Age", "submissionValue": "AGE", "synonyms": ["Age"]}, {"conceptId": "C17049", "definition": "An arbitrary classification of a taxonomic group that is a division of the human species.", "preferredTerm": "Race", "submissionValue": "RACE"}, {"conceptId": "C28421", "definition": "The assemblage of properties or qualities by which male is distinguished from female. [The NCI Thesaurus contains biomedical terminologies that NCI does not own or control. This concept contains gender-related content that does not comply with Executive Order 14168.]", "preferredTerm": "Sex", "submissionValue": "SEX"}, {"conceptId": "C210051", "definition": "A characterization or categorization of the tobacco product.", "preferredTerm": "Tobacco Product Category", "submissionValue": "TOBACCO PRODUCT CATEGORY", "synonyms": ["Tobacco Product Category"]}, {"conceptId": "C210052", "definition": "The usage status of a tobacco product(s) after a change in use of any tobacco product(s).", "preferredTerm": "Post-Transition Tobacco Product Use Status", "submissionValue": "TOBACCO PRODUCT USE STATUS POST-TRANSITION"}, {"conceptId": "C210053", "definition": "The usage status of a tobacco product(s) prior to a change in use of any tobacco product(s).", "preferredTerm": "Pre-Transition Tobacco Product Use Status", "submissionValue": "TOBACCO PRODUCT USE STATUS PRE-TRANSITION"}, {"conceptId": "C210042", "definition": "The condition or status of usage of a tobacco product(s).", "preferredTerm": "Tobacco Product Use Status", "submissionValue": "TOBACCO PRODUCT USE STATUS"}, {"conceptId": "C210054", "definition": "A characterization or categorization of the change from one tobacco product use state to another.", "preferredTerm": "Tobacco Product Use Transition Type", "submissionValue": "TOBACCO PRODUCT USE TRANSITION TYPE"}, {"conceptId": "C210055", "definition": "A year period of time, which may be historical or projected, that is used for the purpose of defining a projection period.", "preferredTerm": "Year Projection Period", "submissionValue": "YEAR"}]}, {"conceptId": "C187458", "definition": "A parameter code codelist for the Craig Handicap Assessment and Reporting Technique-Short Form Questionnaires (CHART-SF) to support the calculation of subscores and total score for the Interview and Paper Versions in ADaM.", "extensible": "false", "name": "Craig Handicap Assessment and Reporting Technique-Short Form Questionnaires Parameter Code", "preferredTerm": "CDISC ADaM Craig Handicap Assessment and Reporting Technique-Short Form Questionnaires Parameter Code Terminology", "submissionValue": "CHSFPC", "synonyms": ["Craig Handicap Assessment and Reporting Technique-Short Form Questionnaires Parameter Code"], "terms": [{"conceptId": "C187467", "definition": "Craig Handicap Assessment and Reporting Technique-Short Form - How many hours in a typical 24-hour day do you have someone with you to provide physical assistance for personal care activities such as eating, bathing, dressing, toileting and mobility? (hours paid assistance).", "preferredTerm": "Craig Handicap Assessment and Reporting Technique-Short Form - Paid Personal Care per Day", "submissionValue": "CHSF01A", "synonyms": ["CHSF-Paid Personal Care per Day"]}, {"conceptId": "C187468", "definition": "Craig Handicap Assessment and Reporting Technique-Short Form - How many hours in a typical 24-hour day do you have someone with you to provide physical assistance for personal care activities such as eating, bathing, dressing, toileting and mobility? hours unpaid (family, others).", "preferredTerm": "Craig Handicap Assessment and Reporting Technique-Short Form - Unpaid Personal Care per Day", "submissionValue": "CHSF01B", "synonyms": ["CHSF-Unpaid Personal Care per Day"]}, {"conceptId": "C187469", "definition": "Craig Handicap Assessment and Reporting Technique-Short Form - How much time is someone with you in your home to assist you with activities that require remembering, decision making, or judgment?", "preferredTerm": "Craig Handicap Assessment and Reporting Technique-Short Form - Home Cognitive Assistance per Day", "submissionValue": "CHSF02", "synonyms": ["CHSF-Home Cognitive Assistance per Day"]}, {"conceptId": "C187470", "definition": "Craig Handicap Assessment and Reporting Technique-Short Form - How much of the time is someone with you to help you with remembering, decision making, or judgment when you go away from your home?", "preferredTerm": "Craig Handicap Assessment and Reporting Technique-Short Form - Away Cognitive Assistance per Day", "submissionValue": "CHSF03", "synonyms": ["CHSF-Away Cognitive Assistance per Day"]}, {"conceptId": "C187471", "definition": "Craig Handicap Assessment and Reporting Technique-Short Form - On a typical day, how many hours are you out of bed?", "preferredTerm": "Craig Handicap Assessment and Reporting Technique-Short Form - Hours Out of Bed per Day", "submissionValue": "CHSF04", "synonyms": ["CHSF-Hours Out of Bed per Day"]}, {"conceptId": "C187472", "definition": "Craig Handicap Assessment and Reporting Technique-Short Form - In a typical week, how many days do you get out of your house and go somewhere?", "preferredTerm": "Craig Handicap Assessment and Reporting Technique-Short Form - Days Out of the House per Week", "submissionValue": "CHSF05", "synonyms": ["CHSF-Days Out of the House per Week"]}, {"conceptId": "C187473", "definition": "Craig Handicap Assessment and Reporting Technique-Short Form - In the last year, how many nights have you spent away from your home?", "preferredTerm": "Craig Handicap Assessment and Reporting Technique-Short Form - Nights Away From Home Last Year", "submissionValue": "CHSF06", "synonyms": ["CHSF-Nights Away From Home Last Year"]}, {"conceptId": "C187474", "definition": "Craig Handicap Assessment and Reporting Technique-Short Form - How many hours per week do you spend working in a job for which you get paid?", "preferredTerm": "Craig Handicap Assessment and Reporting Technique-Short Form - Hours of Paid Work per Week", "submissionValue": "CHSF07A", "synonyms": ["CHSF-Hours of Paid Work per Week"]}, {"conceptId": "C187475", "definition": "Craig Handicap Assessment and Reporting Technique-Short Form - How many hours per week do you spend working in a job for which you get paid? (occupation).", "preferredTerm": "Craig Handicap Assessment and Reporting Technique-Short Form - Occupation of Paid Work", "submissionValue": "CHSF07B", "synonyms": ["CHSF-Occupation of Paid Work"]}, {"conceptId": "C187476", "definition": "Craig Handicap Assessment and Reporting Technique-Short Form - How many hours per week do you spend in school working toward a degree or in an accredited technical training program?", "preferredTerm": "Craig Handicap Assessment and Reporting Technique-Short Form - Hours of Schoolwork per Week", "submissionValue": "CHSF08", "synonyms": ["CHSF-Hours of Schoolwork per Week"]}, {"conceptId": "C187477", "definition": "Craig Handicap Assessment and Reporting Technique-Short Form - How many hours per week do you spend in active homemaking including parenting, housekeeping, and food preparation?", "preferredTerm": "Craig Handicap Assessment and Reporting Technique-Short Form - Hours of Homemaking per Week", "submissionValue": "CHSF09", "synonyms": ["CHSF-Hours of Homemaking per Week"]}, {"conceptId": "C187478", "definition": "Craig Handicap Assessment and Reporting Technique-Short Form - How many hours per week do you spend in home maintenance activities such as gardening, house repairs or home improvement?", "preferredTerm": "Craig Handicap Assessment and Reporting Technique-Short Form - Hours of Home Maintenance per Week", "submissionValue": "CHSF10", "synonyms": ["CHSF-Hours of Home Maintenance per Week"]}, {"conceptId": "C187479", "definition": "Craig Handicap Assessment and Reporting Technique-Short Form - How many hours per week do you spend in recreational activities such as sports, exercise, playing cards, or going to movies?", "preferredTerm": "Craig Handicap Assessment and Reporting Technique-Short Form - Hours of Recreation per Week", "submissionValue": "CHSF11", "synonyms": ["CHSF-Hours of Recreation per Week"]}, {"conceptId": "C187480", "definition": "Craig Handicap Assessment and Reporting Technique-Short Form - How many people do you live with?", "preferredTerm": "Craig Handicap Assessment and Reporting Technique-Short Form - Number of People You Live With", "submissionValue": "CHSF12", "synonyms": ["CHSF-Number of People You Live With"]}, {"conceptId": "C187481", "definition": "Craig Handicap Assessment and Reporting Technique-Short Form - Is one of them your spouse or significant other?", "preferredTerm": "Craig Handicap Assessment and Reporting Technique-Short Form - Live With Spouse or Significant Other", "submissionValue": "CHSF13", "synonyms": ["CHSF-Live With Spouse or Signif Other"]}, {"conceptId": "C187482", "definition": "Craig Handicap Assessment and Reporting Technique-Short Form - Of the people you live with how many are relatives?", "preferredTerm": "Craig Handicap Assessment and Reporting Technique-Short Form - Number of Relatives You Live With", "submissionValue": "CHSF14", "synonyms": ["CHSF-Number of Relatives You Live With"]}, {"conceptId": "C187483", "definition": "Craig Handicap Assessment and Reporting Technique-Short Form - How many business or organizational associates do you visit, phone, or write to at least once a month?", "preferredTerm": "Craig Handicap Assessment and Reporting Technique-Short Form - Associates Contacted per Month", "submissionValue": "CHSF15", "synonyms": ["CHSF-Associates Contacted per Month"]}, {"conceptId": "C187484", "definition": "Craig Handicap Assessment and Reporting Technique-Short Form - How many friends do you visit, phone, or write to at least once a month?", "preferredTerm": "Craig Handicap Assessment and Reporting Technique-Short Form - Friends Contacted per Month", "submissionValue": "CHSF16", "synonyms": ["CHSF-Friends Contacted per Month"]}, {"conceptId": "C187485", "definition": "Craig Handicap Assessment and Reporting Technique-Short Form - With how many strangers have you initiated a conversation in the last month?", "preferredTerm": "Craig Handicap Assessment and Reporting Technique-Short Form - Strangers Spoke with Last Month", "submissionValue": "CHSF17", "synonyms": ["CHSF-Strangers Spoke with Last Month"]}, {"conceptId": "C187486", "definition": "Craig Handicap Assessment and Reporting Technique-Short Form - Approximately what was the combined annual income, in the last year, of all family members in your household?", "preferredTerm": "Craig Handicap Assessment and Reporting Technique-Short Form - Combined Household Income Last Year", "submissionValue": "CHSF18", "synonyms": ["CHSF-Combined Household Income Last Yr"]}, {"conceptId": "C187487", "definition": "Craig Handicap Assessment and Reporting Technique-Short Form - Approximately how much did you pay last year for medical care expenses?", "preferredTerm": "Craig Handicap Assessment and Reporting Technique-Short Form - Medical Care Expenses Last Year", "submissionValue": "CHSF19", "synonyms": ["CHSF-Medical Care Expenses Last Year"]}, {"conceptId": "C187489", "definition": "Craig Handicap Assessment and Reporting Technique-Short Form - Cognitive independence subscore used for analysis.", "preferredTerm": "Craig Handicap Assessment and Reporting Technique-Short Form - Cognitive Independence Subscore for Analysis", "submissionValue": "CHSFCS", "synonyms": ["CHSF-Cognitive Independence Subscore-Analysis"]}, {"conceptId": "C187493", "definition": "Craig Handicap Assessment and Reporting Technique-Short Form - Economic self-sufficiency subscore used for analysis.", "preferredTerm": "Craig Handicap Assessment and Reporting Technique-Short Form - Economic Self-Sufficiency Subscore for Analysis", "submissionValue": "CHSFES", "synonyms": ["CHSF-Economic Self-Sufficiency Subscore-Analysis"]}, {"conceptId": "C187490", "definition": "Craig Handicap Assessment and Reporting Technique-Short Form - Mobility subscore used for analysis.", "preferredTerm": "Craig Handicap Assessment and Reporting Technique-Short Form - Mobility Subscore for Analysis", "submissionValue": "CHSFMS", "synonyms": ["CHSF-Mobility Subscore-Analysis"]}, {"conceptId": "C187491", "definition": "Craig Handicap Assessment and Reporting Technique-Short Form - Occupation subscore used for analysis.", "preferredTerm": "Craig Handicap Assessment and Reporting Technique-Short Form - Occupation Subscore for Analysis", "submissionValue": "CHSFOS", "synonyms": ["CHSF-Occupation Subscore-Analysis"]}, {"conceptId": "C187488", "definition": "Craig Handicap Assessment and Reporting Technique-Short Form - Physical independence subscore used for analysis.", "preferredTerm": "Craig Handicap Assessment and Reporting Technique-Short Form - Physical Independence Subscore for Analysis", "submissionValue": "CHSFPS", "synonyms": ["CHSF-Physical Independence Subscore-Analysis"]}, {"conceptId": "C187492", "definition": "Craig Handicap Assessment and Reporting Technique-Short Form - Social integration subscore used for analysis.", "preferredTerm": "Craig Handicap Assessment and Reporting Technique-Short Form - Social Integration Subscore for Analysis", "submissionValue": "CHSFSS", "synonyms": ["CHSF-Social Integration Subscore-Analysis"]}, {"conceptId": "C187494", "definition": "Craig Handicap Assessment and Reporting Technique-Short Form - Total score used for analysis.", "preferredTerm": "Craig Handicap Assessment and Reporting Technique-Short Form - Total Score for Analysis", "submissionValue": "CHSFTS", "synonyms": ["CHSF-Total Score-Analysis"]}]}, {"conceptId": "C187457", "definition": "A parameter name codelist for the Craig Handicap Assessment and Reporting Technique-Short Form Questionnaires (CHART-SF) to support the calculation of subscores and total score for the Interview and Paper Versions in ADaM.", "extensible": "false", "name": "Craig Handicap Assessment and Reporting Technique-Short Form Questionnaires Parameter Name", "preferredTerm": "CDISC ADaM Craig Handicap Assessment and Reporting Technique-Short Form Questionnaires Parameter Name Terminology", "submissionValue": "CHSFPN", "synonyms": ["Craig Handicap Assessment and Reporting Technique-Short Form Questionnaires Parameter Name"], "terms": [{"conceptId": "C187483", "definition": "Craig Handicap Assessment and Reporting Technique-Short Form - How many business or organizational associates do you visit, phone, or write to at least once a month?", "preferredTerm": "Craig Handicap Assessment and Reporting Technique-Short Form - Associates Contacted per Month", "submissionValue": "CHSF-Associates Contacted per Month", "synonyms": ["CHSF-Associates Contacted per Month"]}, {"conceptId": "C187470", "definition": "Craig Handicap Assessment and Reporting Technique-Short Form - How much of the time is someone with you to help you with remembering, decision making, or judgment when you go away from your home?", "preferredTerm": "Craig Handicap Assessment and Reporting Technique-Short Form - Away Cognitive Assistance per Day", "submissionValue": "CHSF-Away Cognitive Assistance per Day", "synonyms": ["CHSF-Away Cognitive Assistance per Day"]}, {"conceptId": "C187489", "definition": "Craig Handicap Assessment and Reporting Technique-Short Form - Cognitive independence subscore used for analysis.", "preferredTerm": "Craig Handicap Assessment and Reporting Technique-Short Form - Cognitive Independence Subscore for Analysis", "submissionValue": "CHSF-Cognitive Independence Subscore-Analysis", "synonyms": ["CHSF-Cognitive Independence Subscore-Analysis"]}, {"conceptId": "C187486", "definition": "Craig Handicap Assessment and Reporting Technique-Short Form - Approximately what was the combined annual income, in the last year, of all family members in your household?", "preferredTerm": "Craig Handicap Assessment and Reporting Technique-Short Form - Combined Household Income Last Year", "submissionValue": "CHSF-Combined Household Income Last Yr", "synonyms": ["CHSF-Combined Household Income Last Yr"]}, {"conceptId": "C187472", "definition": "Craig Handicap Assessment and Reporting Technique-Short Form - In a typical week, how many days do you get out of your house and go somewhere?", "preferredTerm": "Craig Handicap Assessment and Reporting Technique-Short Form - Days Out of the House per Week", "submissionValue": "CHSF-Days Out of the House per Week", "synonyms": ["CHSF-Days Out of the House per Week"]}, {"conceptId": "C187493", "definition": "Craig Handicap Assessment and Reporting Technique-Short Form - Economic self-sufficiency subscore used for analysis.", "preferredTerm": "Craig Handicap Assessment and Reporting Technique-Short Form - Economic Self-Sufficiency Subscore for Analysis", "submissionValue": "CHSF-Economic Self-Sufficiency Subscore-Analysis", "synonyms": ["CHSF-Economic Self-Sufficiency Subscore-Analysis"]}, {"conceptId": "C187484", "definition": "Craig Handicap Assessment and Reporting Technique-Short Form - How many friends do you visit, phone, or write to at least once a month?", "preferredTerm": "Craig Handicap Assessment and Reporting Technique-Short Form - Friends Contacted per Month", "submissionValue": "CHSF-Friends Contacted per Month", "synonyms": ["CHSF-Friends Contacted per Month"]}, {"conceptId": "C187469", "definition": "Craig Handicap Assessment and Reporting Technique-Short Form - How much time is someone with you in your home to assist you with activities that require remembering, decision making, or judgment?", "preferredTerm": "Craig Handicap Assessment and Reporting Technique-Short Form - Home Cognitive Assistance per Day", "submissionValue": "CHSF-Home Cognitive Assistance per Day", "synonyms": ["CHSF-Home Cognitive Assistance per Day"]}, {"conceptId": "C187478", "definition": "Craig Handicap Assessment and Reporting Technique-Short Form - How many hours per week do you spend in home maintenance activities such as gardening, house repairs or home improvement?", "preferredTerm": "Craig Handicap Assessment and Reporting Technique-Short Form - Hours of Home Maintenance per Week", "submissionValue": "CHSF-Hours of Home Maintenance per Week", "synonyms": ["CHSF-Hours of Home Maintenance per Week"]}, {"conceptId": "C187477", "definition": "Craig Handicap Assessment and Reporting Technique-Short Form - How many hours per week do you spend in active homemaking including parenting, housekeeping, and food preparation?", "preferredTerm": "Craig Handicap Assessment and Reporting Technique-Short Form - Hours of Homemaking per Week", "submissionValue": "CHSF-Hours of Homemaking per Week", "synonyms": ["CHSF-Hours of Homemaking per Week"]}, {"conceptId": "C187474", "definition": "Craig Handicap Assessment and Reporting Technique-Short Form - How many hours per week do you spend working in a job for which you get paid?", "preferredTerm": "Craig Handicap Assessment and Reporting Technique-Short Form - Hours of Paid Work per Week", "submissionValue": "CHSF-Hours of Paid Work per Week", "synonyms": ["CHSF-Hours of Paid Work per Week"]}, {"conceptId": "C187479", "definition": "Craig Handicap Assessment and Reporting Technique-Short Form - How many hours per week do you spend in recreational activities such as sports, exercise, playing cards, or going to movies?", "preferredTerm": "Craig Handicap Assessment and Reporting Technique-Short Form - Hours of Recreation per Week", "submissionValue": "CHSF-Hours of Recreation per Week", "synonyms": ["CHSF-Hours of Recreation per Week"]}, {"conceptId": "C187476", "definition": "Craig Handicap Assessment and Reporting Technique-Short Form - How many hours per week do you spend in school working toward a degree or in an accredited technical training program?", "preferredTerm": "Craig Handicap Assessment and Reporting Technique-Short Form - Hours of Schoolwork per Week", "submissionValue": "CHSF-Hours of Schoolwork per Week", "synonyms": ["CHSF-Hours of Schoolwork per Week"]}, {"conceptId": "C187471", "definition": "Craig Handicap Assessment and Reporting Technique-Short Form - On a typical day, how many hours are you out of bed?", "preferredTerm": "Craig Handicap Assessment and Reporting Technique-Short Form - Hours Out of Bed per Day", "submissionValue": "CHSF-Hours Out of Bed per Day", "synonyms": ["CHSF-Hours Out of Bed per Day"]}, {"conceptId": "C187481", "definition": "Craig Handicap Assessment and Reporting Technique-Short Form - Is one of them your spouse or significant other?", "preferredTerm": "Craig Handicap Assessment and Reporting Technique-Short Form - Live With Spouse or Significant Other", "submissionValue": "CHSF-Live With Spouse or Signif Other", "synonyms": ["CHSF-Live With Spouse or Signif Other"]}, {"conceptId": "C187487", "definition": "Craig Handicap Assessment and Reporting Technique-Short Form - Approximately how much did you pay last year for medical care expenses?", "preferredTerm": "Craig Handicap Assessment and Reporting Technique-Short Form - Medical Care Expenses Last Year", "submissionValue": "CHSF-Medical Care Expenses Last Year", "synonyms": ["CHSF-Medical Care Expenses Last Year"]}, {"conceptId": "C187490", "definition": "Craig Handicap Assessment and Reporting Technique-Short Form - Mobility subscore used for analysis.", "preferredTerm": "Craig Handicap Assessment and Reporting Technique-Short Form - Mobility Subscore for Analysis", "submissionValue": "CHSF-Mobility Subscore-Analysis", "synonyms": ["CHSF-Mobility Subscore-Analysis"]}, {"conceptId": "C187473", "definition": "Craig Handicap Assessment and Reporting Technique-Short Form - In the last year, how many nights have you spent away from your home?", "preferredTerm": "Craig Handicap Assessment and Reporting Technique-Short Form - Nights Away From Home Last Year", "submissionValue": "CHSF-Nights Away From Home Last Year", "synonyms": ["CHSF-Nights Away From Home Last Year"]}, {"conceptId": "C187480", "definition": "Craig Handicap Assessment and Reporting Technique-Short Form - How many people do you live with?", "preferredTerm": "Craig Handicap Assessment and Reporting Technique-Short Form - Number of People You Live With", "submissionValue": "CHSF-Number of People You Live With", "synonyms": ["CHSF-Number of People You Live With"]}, {"conceptId": "C187482", "definition": "Craig Handicap Assessment and Reporting Technique-Short Form - Of the people you live with how many are relatives?", "preferredTerm": "Craig Handicap Assessment and Reporting Technique-Short Form - Number of Relatives You Live With", "submissionValue": "CHSF-Number of Relatives You Live With", "synonyms": ["CHSF-Number of Relatives You Live With"]}, {"conceptId": "C187475", "definition": "Craig Handicap Assessment and Reporting Technique-Short Form - How many hours per week do you spend working in a job for which you get paid? (occupation).", "preferredTerm": "Craig Handicap Assessment and Reporting Technique-Short Form - Occupation of Paid Work", "submissionValue": "CHSF-Occupation of Paid Work", "synonyms": ["CHSF-Occupation of Paid Work"]}, {"conceptId": "C187491", "definition": "Craig Handicap Assessment and Reporting Technique-Short Form - Occupation subscore used for analysis.", "preferredTerm": "Craig Handicap Assessment and Reporting Technique-Short Form - Occupation Subscore for Analysis", "submissionValue": "CHSF-Occupation Subscore-Analysis", "synonyms": ["CHSF-Occupation Subscore-Analysis"]}, {"conceptId": "C187467", "definition": "Craig Handicap Assessment and Reporting Technique-Short Form - How many hours in a typical 24-hour day do you have someone with you to provide physical assistance for personal care activities such as eating, bathing, dressing, toileting and mobility? (hours paid assistance).", "preferredTerm": "Craig Handicap Assessment and Reporting Technique-Short Form - Paid Personal Care per Day", "submissionValue": "CHSF-Paid Personal Care per Day", "synonyms": ["CHSF-Paid Personal Care per Day"]}, {"conceptId": "C187488", "definition": "Craig Handicap Assessment and Reporting Technique-Short Form - Physical independence subscore used for analysis.", "preferredTerm": "Craig Handicap Assessment and Reporting Technique-Short Form - Physical Independence Subscore for Analysis", "submissionValue": "CHSF-Physical Independence Subscore-Analysis", "synonyms": ["CHSF-Physical Independence Subscore-Analysis"]}, {"conceptId": "C187492", "definition": "Craig Handicap Assessment and Reporting Technique-Short Form - Social integration subscore used for analysis.", "preferredTerm": "Craig Handicap Assessment and Reporting Technique-Short Form - Social Integration Subscore for Analysis", "submissionValue": "CHSF-Social Integration Subscore-Analysis", "synonyms": ["CHSF-Social Integration Subscore-Analysis"]}, {"conceptId": "C187485", "definition": "Craig Handicap Assessment and Reporting Technique-Short Form - With how many strangers have you initiated a conversation in the last month?", "preferredTerm": "Craig Handicap Assessment and Reporting Technique-Short Form - Strangers Spoke with Last Month", "submissionValue": "CHSF-Strangers Spoke with Last Month", "synonyms": ["CHSF-Strangers Spoke with Last Month"]}, {"conceptId": "C187494", "definition": "Craig Handicap Assessment and Reporting Technique-Short Form - Total score used for analysis.", "preferredTerm": "Craig Handicap Assessment and Reporting Technique-Short Form - Total Score for Analysis", "submissionValue": "CHSF-Total Score-Analysis", "synonyms": ["CHSF-Total Score-Analysis"]}, {"conceptId": "C187468", "definition": "Craig Handicap Assessment and Reporting Technique-Short Form - How many hours in a typical 24-hour day do you have someone with you to provide physical assistance for personal care activities such as eating, bathing, dressing, toileting and mobility? hours unpaid (family, others).", "preferredTerm": "Craig Handicap Assessment and Reporting Technique-Short Form - Unpaid Personal Care per Day", "submissionValue": "CHSF-Unpaid Personal Care per Day", "synonyms": ["CHSF-Unpaid Personal Care per Day"]}]}, {"conceptId": "C81223", "definition": "Date Imputation Flag: Indicates the level of imputation reflected in a date value.", "extensible": "false", "name": "Date Imputation Flag", "preferredTerm": "CDISC ADaM Date Imputation Flag Terminology", "submissionValue": "DATEFL", "synonyms": ["Date Imputation Flag"], "terms": [{"conceptId": "C81212", "definition": "Day Imputed: Day is imputed.", "preferredTerm": "Day Imputed", "submissionValue": "D"}, {"conceptId": "C81211", "definition": "Month Imputed: Month and day are imputed.", "preferredTerm": "Month Day Imputed", "submissionValue": "M"}, {"conceptId": "C81210", "definition": "Year Imputed: Entire date (year, month and day) is imputed.", "preferredTerm": "Year Month Day Imputed", "submissionValue": "Y"}]}, {"conceptId": "C81224", "definition": "Derivation Type: Analysis value derivation method.", "extensible": "true", "name": "Derivation Type", "preferredTerm": "CDISC ADaM Derivation Type Terminology", "submissionValue": "DTYPE", "synonyms": ["Derivation Type"], "terms": [{"conceptId": "C81209", "definition": "A data derivation or imputation technique which sets the analysis value on the record to the subject's average value over a defined set of records.", "preferredTerm": "Average of Value Derivation Technique", "submissionValue": "AVERAGE", "synonyms": ["Average"]}, {"conceptId": "C92225", "definition": "A data derivation or imputation technique which sets the analysis value on the record to the best possible outcome.", "preferredTerm": "Best Case Imputation Technique", "submissionValue": "BC", "synonyms": ["Best Case"]}, {"conceptId": "C81201", "definition": "A data derivation or imputation technique which sets the analysis value on the record to the subject's non-missing baseline observation.", "preferredTerm": "Baseline Observation Carried Forward Imputation Technique", "submissionValue": "BLOCF", "synonyms": ["Baseline Observation Carried Forward"]}, {"conceptId": "C132340", "definition": "A data derivation or imputation technique which sets the analysis value on the record to the best outcome recorded within a subject.", "preferredTerm": "Best Observed Case Imputation Technique", "submissionValue": "BOC", "synonyms": ["Best Observed Case"]}, {"conceptId": "C92226", "definition": "A data derivation or imputation technique which sets the analysis value on the record to the subject's previous best-case non-missing value.", "preferredTerm": "Best Observation Carried Forward Imputation Technique", "submissionValue": "BOCF", "synonyms": ["Best Observation Carried Forward"]}, {"conceptId": "C184383", "definition": "A technique that uses assignment logic to duplicate an analysis value to be used in additional evaluations.", "preferredTerm": "Copy Duplication Imputation Technique", "submissionValue": "COPY"}, {"conceptId": "C139176", "definition": "A data derivation or imputation technique which sets the analysis value on the record to an estimated or assumed value based on extending a known sequence of values. This category also includes conditionally branched questions where an actual response is imputed.", "preferredTerm": "Extrapolation Imputation Technique", "submissionValue": "EXTRAP", "synonyms": ["Extrapolation"]}, {"conceptId": "C170546", "definition": "A data derivation or imputation technique which sets the analysis value on the record to one half of the lower limit of quantification of a test.", "preferredTerm": "One Half of Lower Limit of Quantification Derivation Technique", "submissionValue": "HALFLLOQ", "synonyms": ["One Half of Lower Limit of Quantification"]}, {"conceptId": "C81208", "definition": "A data derivation or imputation technique which sets the analysis value on the record to a function of known values to estimate a value within the range.", "preferredTerm": "Interpolation Imputation Technique", "submissionValue": "INTERP", "synonyms": ["Interpolation"]}, {"conceptId": "C105701", "definition": "A data derivation or imputation technique which sets the analysis value on the record to the lower limit of detection of a test.", "preferredTerm": "Detection Limit", "submissionValue": "LLOD", "synonyms": ["Lower Limit of Detection"]}, {"conceptId": "C170543", "definition": "A data derivation or imputation technique which sets the analysis value on the record to the lower limit of quantification of a test.", "preferredTerm": "Lower Limit of Quantification Derivation Technique", "submissionValue": "LLOQ", "synonyms": ["Lower Limit of Quantification"]}, {"conceptId": "C81198", "definition": "A data derivation or imputation technique which sets the analysis value on the record to the subject's previous non-missing value.", "preferredTerm": "Last Observation Carried Forward Imputation Technique", "submissionValue": "LOCF", "synonyms": ["Last Observation Carried Forward"]}, {"conceptId": "C132341", "definition": "A data derivation or imputation technique which sets the analysis value on the record to the subject's last recorded non-missing observation.", "preferredTerm": "Last Observed Value Imputation Technique", "submissionValue": "LOV", "synonyms": ["Last Observed Value"]}, {"conceptId": "C132342", "definition": "A data derivation or imputation technique which sets the analysis value on the record to the subject's last observed value prior to the start of study treatment.", "preferredTerm": "Last Value Prior to Dosing Imputation Technique", "submissionValue": "LVPD", "synonyms": ["Last Value Prior to Dosing"]}, {"conceptId": "C82868", "definition": "A data derivation or imputation technique which sets the analysis value on the record to the subject's maximum value over a defined set of records.", "preferredTerm": "Maximum Value Derivation Technique", "submissionValue": "MAXIMUM", "synonyms": ["Maximum"]}, {"conceptId": "C82867", "definition": "A data derivation or imputation technique which sets the analysis value on the record to the subject's minimum value over a defined set of records.", "preferredTerm": "Minimum Value Derivation Technique", "submissionValue": "MINIMUM", "synonyms": ["Minimum"]}, {"conceptId": "C53331", "definition": "A data derivation or imputation technique which sets the analysis value on the record to the estimate that maximizes the probability of observing what has in fact been observed.", "preferredTerm": "Maximum Likelihood Estimation", "submissionValue": "ML", "synonyms": ["Maximum Likelihood"]}, {"conceptId": "C81204", "definition": "A data derivation or imputation technique which sets the analysis value on the record to the mean value from a comparator or reference group.", "preferredTerm": "Mean of Other Group Imputation Technique", "submissionValue": "MOTH", "synonyms": ["Mean of Other Group"]}, {"conceptId": "C81207", "definition": "A data derivation or imputation technique which sets the analysis value on the record to the mean value observed in a group of subjects.", "preferredTerm": "Mean Observed Value in a Group Imputation Technique", "submissionValue": "MOV", "synonyms": ["Mean Observed Value in a Group"]}, {"conceptId": "C204584", "definition": "A data derivation or imputation technique which sets the analysis value on the record to the subject's next non-missing value.", "preferredTerm": "Next Observation Carried Backward Imputation Technique", "submissionValue": "NOCB", "synonyms": ["Next Observation Carried Backward", "Next Value Carried Backward", "NVCB"]}, {"conceptId": "C170545", "definition": "A technique that creates a record with a missing analysis value when there is no observed record for a given analysis visit or analysis timepoint.", "preferredTerm": "Phantom Record Imputation Technique", "submissionValue": "PHANTOM", "synonyms": ["Phantom Record"]}, {"conceptId": "C81205", "definition": "A data derivation or imputation technique which sets the analysis value on the record to the subject's next-to-last non-missing value.", "preferredTerm": "Penultimate Observation Carried Forward Imputation Technique", "submissionValue": "POCF", "synonyms": ["Penultimate Observation Carried Forward"]}, {"conceptId": "C81200", "definition": "A data derivation or imputation technique which sets the analysis value on the record to the subject's non-missing screening observation.", "preferredTerm": "Screening Observation Carried Forward Imputation Technique", "submissionValue": "SOCF", "synonyms": ["Screening Observation Carried Forward"]}, {"conceptId": "C174264", "definition": "A data derivation or imputation technique which sets the analysis value on the record to the upper limit of detection of a test.", "preferredTerm": "Upper Limit of Detection Imputation Technique", "submissionValue": "ULOD", "synonyms": ["Upper Limit of Detection"]}, {"conceptId": "C170544", "definition": "A data derivation or imputation technique which sets the analysis value on the record to the upper limit of quantification of a test.", "preferredTerm": "Upper Limit of Quantification Derivation Technique", "submissionValue": "ULOQ", "synonyms": ["Upper Limit of Quantification"]}, {"conceptId": "C81203", "definition": "A data derivation or imputation technique which sets the analysis value on the record to the worst possible outcome.", "preferredTerm": "Worst Case Imputation Technique", "submissionValue": "WC", "synonyms": ["Worst Case"]}, {"conceptId": "C132343", "definition": "A data derivation or imputation technique which sets the analysis value on the record to the worst recorded outcome within a subject.", "preferredTerm": "Worst Observed Case Imputation Technique", "submissionValue": "WOC", "synonyms": ["Worst Observed Case"]}, {"conceptId": "C81199", "definition": "A data derivation or imputation technique which sets the analysis value on the record to the subject's worst-case non-missing observation.", "preferredTerm": "Worst Observation Carried Forward Imputation Technique", "submissionValue": "WOCF", "synonyms": ["Worst Observed Value Carried Forward"]}, {"conceptId": "C81206", "definition": "A data derivation or imputation technique which sets the analysis value on the record to the worst value observed in a group of subjects.", "preferredTerm": "Worst Observed Value in a Group Imputation Technique", "submissionValue": "WOV", "synonyms": ["Worst Observed Value in a Group"]}]}, {"conceptId": "C172334", "definition": "A parameter code codelist for the Generalized Anxiety Disorder - 7 Version 2 Questionnaire (GAD-7 V2) to support the calculation of total score in ADaM.", "extensible": "false", "name": "Generalized Anxiety Disorder - 7 Version 2 Questionnaire Parameter Code", "preferredTerm": "CDISC ADaM Generalized Anxiety Disorder-7 Version 2 Questionnaire Parameter Code Terminology", "submissionValue": "GAD02PC", "synonyms": ["Generalized Anxiety Disorder - 7 Version 2 Questionnaire Parameter Code"], "terms": [{"conceptId": "C172451", "definition": "Generalized Anxiety Disorder - 7 Version 2 - Total score used for analysis.", "preferredTerm": "Generalized Anxiety Disorder - 7 Version 2 - Total Score for Analysis", "submissionValue": "GAD02TS", "synonyms": ["GAD02-Total Score - Analysis"]}]}, {"conceptId": "C172335", "definition": "A parameter name codelist for the Generalized Anxiety Disorder - 7 Version 2 Questionnaire (GAD-7 V2) to support the calculation of total score in ADaM.", "extensible": "false", "name": "Generalized Anxiety Disorder - 7 Version 2 Questionnaire Parameter Name", "preferredTerm": "CDISC ADaM Generalized Anxiety Disorder-7 Version 2 Questionnaire Parameter Name Terminology", "submissionValue": "GAD02PN", "synonyms": ["Generalized Anxiety Disorder - 7 Version 2 Questionnaire Parameter Name"], "terms": [{"conceptId": "C172451", "definition": "Generalized Anxiety Disorder - 7 Version 2 - Total score used for analysis.", "preferredTerm": "Generalized Anxiety Disorder - 7 Version 2 - Total Score for Analysis", "submissionValue": "GAD02-Total Score - Analysis", "synonyms": ["GAD02-Total Score - Analysis"]}]}, {"conceptId": "C158114", "definition": "A parameter code codelist for the Geriatric Depression Scale Short Form questionnaire (GDS02) to support the calculation of total score in ADaM.", "extensible": "false", "name": "Geriatric Depression Scale Short Form Questionnaire Parameter Code", "preferredTerm": "CDISC ADaM Geriatric Depression Scale Short Form Questionnaire Parameter Code Terminology", "submissionValue": "GDS02PC", "synonyms": ["Geriatric Depression Scale Short Form Questionnaire Parameter Code"], "terms": [{"conceptId": "C158155", "definition": "Geriatric Depression Scale Short Form - Total score used for analysis.", "preferredTerm": "Geriatric Depression Scale Short Form - Total Score for Analysis", "submissionValue": "GDS02TS", "synonyms": ["GDS02-Total Score - Analysis"]}]}, {"conceptId": "C158115", "definition": "A parameter name codelist for the Geriatric Depression Scale Short Form questionnaire (GDS02) to support the calculation of total score in ADaM.", "extensible": "false", "name": "Geriatric Depression Scale Short Form Questionnaire Parameter Name", "preferredTerm": "CDISC ADaM Geriatric Depression Scale Short Form Questionnaire Parameter Name Terminology", "submissionValue": "GDS02PN", "synonyms": ["Geriatric Depression Scale Short Form Questionnaire Parameter Name"], "terms": [{"conceptId": "C158155", "definition": "Geriatric Depression Scale Short Form - Total score used for analysis.", "preferredTerm": "Geriatric Depression Scale Short Form - Total Score for Analysis", "submissionValue": "GDS02-Total Score - Analysis", "synonyms": ["GDS02-Total Score - Analysis"]}]}, {"conceptId": "C187456", "definition": "A parameter code codelist for the Hamilton Depression Rating Scale - 17 Item Clinical Classification (HAMD 17) to support the calculation of total score in ADaM.", "extensible": "false", "name": "Hamilton Depression Rating Scale - 17 Item Clinical Classification Parameter Code", "preferredTerm": "CDISC ADaM Hamilton Depression Rating Scale - 17 Item Clinical Classification Parameter Code Terminology", "submissionValue": "HAMD1PC", "synonyms": ["Hamilton Depression Rating Scale - 17 Item Clinical Classification Parameter Code"], "terms": [{"conceptId": "C187466", "definition": "Hamilton Depression Rating Scale - 17 Item - Total score used for analysis.", "preferredTerm": "Hamilton Depression Rating Scale - 17 Item - Total Score for Analysis", "submissionValue": "HAMD1TS", "synonyms": ["HAMD1-Total Score - Analysis"]}]}, {"conceptId": "C187455", "definition": "A parameter name codelist for the Hamilton Depression Rating Scale - 17 Item Clinical Classification (HAMD 17) to support the calculation of total score in ADaM.", "extensible": "false", "name": "Hamilton Depression Rating Scale - 17 Item Clinical Classification Parameter Name", "preferredTerm": "CDISC ADaM Hamilton Depression Rating Scale - 17 Item Clinical Classification Parameter Name Terminology", "submissionValue": "HAMD1PN", "synonyms": ["Hamilton Depression Rating Scale - 17 Item Clinical Classification Parameter Name"], "terms": [{"conceptId": "C187466", "definition": "Hamilton Depression Rating Scale - 17 Item - Total score used for analysis.", "preferredTerm": "Hamilton Depression Rating Scale - 17 Item - Total Score for Analysis", "submissionValue": "HAMD1-Total Score - Analysis", "synonyms": ["HAMD1-Total Score - Analysis"]}]}, {"conceptId": "C204410", "definition": "A terminology codelist containing the input parameters for an analysis.", "extensible": "true", "name": "Input Parameter", "preferredTerm": "CDISC ADaM Input Parameter Terminology", "submissionValue": "INPRM", "synonyms": ["Input Parameter"], "terms": [{"conceptId": "C53345", "definition": "The ratio of total births to the total population during a specified time period.", "preferredTerm": "Birth Rate", "submissionValue": "BIRTH RATE"}, {"conceptId": "C210047", "definition": "Probability of individuals with defined demographic characteristics and tobacco use status that die in a specified time interval. (Vugrin ED, Rostron BL, Verzi SJ, Brodsky NS, Brown TJ, Choiniere CJ, Coleman BN, Paredes A, Apelberg BJ. Modeling the potential effects of new tobacco products and policies: a dynamic population model for multiple product use and harm. PLoS One. 2015 Mar 27;10(3):e0121008.)", "preferredTerm": "Tobacco Use Status Mortality Probability", "submissionValue": "MORTALITY PROBABILITY"}, {"conceptId": "C210048", "definition": "Annual number of net international migrants entering/leaving during the time interval per person in the population. (Vugrin ED, Rostron BL, Verzi SJ, Brodsky NS, Brown TJ, Choiniere CJ, Coleman BN, Paredes A, Apelberg BJ. Modeling the potential effects of new tobacco products and policies: a dynamic population model for multiple product use and harm. PLoS One. 2015 Mar 27;10(3):e0121008.)", "preferredTerm": "Net Migration Rate", "submissionValue": "NET MIGRATION RATE"}, {"conceptId": "C210049", "definition": "An absolute count of the number of individuals within a population group.", "preferredTerm": "Population Count", "submissionValue": "POPULATION COUNT"}, {"conceptId": "C17010", "definition": "The proportion of persons in a population who have a particular disease or attribute at a specified point in time or over a specified period of time. (CDC)", "preferredTerm": "Prevalence", "submissionValue": "PREVALENCE"}, {"conceptId": "C210050", "definition": "Probability of individuals with defined demographic characteristics and tobacco use status that transition their tobacco use status in the specified time interval. (Vugrin ED, Rostron BL, Verzi SJ, Brodsky NS, Brown TJ, Choiniere CJ, Coleman BN, Paredes A, Apelberg BJ. Modeling the potential effects of new tobacco products and policies: a dynamic population model for multiple product use and harm. PLoS One. 2015 Mar 27;10(3):e0121008.)", "preferredTerm": "Tobacco Use Transition Probability", "submissionValue": "TRANSITION PROBABILITY"}]}, {"conceptId": "C193278", "definition": "A parameter code codelist for the National Early Warning Score 2 Clinical Classification (NEWS2) to support the calculation of total score in ADaM.", "extensible": "false", "name": "National Early Warning Score 2 Clinical Classification Parameter Code", "preferredTerm": "CDISC ADaM National Early Warning Score 2 Clinical Classification Parameter Code Terminology", "submissionValue": "NEWS1PC", "synonyms": ["National Early Warning Score 2 Clinical Classification Parameter Code"], "terms": [{"conceptId": "C193374", "definition": "National Early Warning Score 2 - Trigger used for analysis.", "preferredTerm": "National Early Warning Score 2 - Trigger for Analysis", "submissionValue": "NEWS1TRG", "synonyms": ["NEWS1-Trigger - Analysis"]}, {"conceptId": "C193373", "definition": "National Early Warning Score 2 - Total score used for analysis.", "preferredTerm": "National Early Warning Score 2 - Total Score for Analysis", "submissionValue": "NEWS1TS", "synonyms": ["NEWS1-Total Score - Analysis"]}]}, {"conceptId": "C193277", "definition": "A parameter name codelist for the National Early Warning Score 2 Clinical Classification (NEWS2) to support the calculation of total score in ADaM.", "extensible": "false", "name": "National Early Warning Score 2 Clinical Classification Parameter Name", "preferredTerm": "CDISC ADaM National Early Warning Score 2 Clinical Classification Parameter Name Terminology", "submissionValue": "NEWS1PN", "synonyms": ["National Early Warning Score 2 Clinical Classification Parameter Name"], "terms": [{"conceptId": "C193373", "definition": "National Early Warning Score 2 - Total score used for analysis.", "preferredTerm": "National Early Warning Score 2 - Total Score for Analysis", "submissionValue": "NEWS1-Total Score - Analysis", "synonyms": ["NEWS1-Total Score - Analysis"]}, {"conceptId": "C193374", "definition": "National Early Warning Score 2 - Trigger used for analysis.", "preferredTerm": "National Early Warning Score 2 - Trigger for Analysis", "submissionValue": "NEWS1-Trigger - Analysis", "synonyms": ["NEWS1-Trigger - Analysis"]}]}, {"conceptId": "C81225", "definition": "Parameter Type: Indicates whether the parameter is derived as a function of one or more other parameters.", "extensible": "false", "name": "Parameter Type", "preferredTerm": "CDISC ADaM Parameter Type Terminology", "submissionValue": "PARAMTYP", "synonyms": ["Parameter Type"], "terms": [{"conceptId": "C81197", "definition": "Derived: Indicates that a parameter is derived as a function of one or more other parameters.", "preferredTerm": "Derived Flag", "submissionValue": "DERIVED"}]}, {"conceptId": "C165644", "definition": "Terminology relevant to the name of the Pool, often defined in the integrated statistical analysis plan, which identifies the combination of subjects' clinical trial experience and will be the focus of the integrated analysis.", "extensible": "true", "name": "Pool for Integration", "preferredTerm": "CDISC ADaM Pool for Integration Terminology", "submissionValue": "POOLINT", "synonyms": ["Pool for Integration"], "terms": [{"conceptId": "C165858", "definition": "The pool that includes data across all studies within which the subject has participated, used for the overall integrated analysis.", "preferredTerm": "Overall Pooled Data", "submissionValue": "OVERALL"}]}, {"conceptId": "C124296", "definition": "Indicates the status of the subject in the trial.", "extensible": "true", "name": "Subject Trial Status", "preferredTerm": "CDISC ADaM Subject Trial Status Terminology", "submissionValue": "SBJTSTAT", "synonyms": ["Subject Trial Status"], "terms": [{"conceptId": "C25250", "definition": "To possess every necessary or normal part or component or step; having come or been brought to a conclusion. (NCI)", "preferredTerm": "Complete", "submissionValue": "COMPLETED"}, {"conceptId": "C25484", "definition": "To stop or end, permanently or temporarily.", "preferredTerm": "Discontinue", "submissionValue": "DISCONTINUED"}, {"conceptId": "C53279", "definition": "Remain in force or carry on without letup; keep or maintain in unaltered condition; exist in time or space without stop or interruption. (NCI)", "preferredTerm": "Continue", "submissionValue": "ONGOING", "synonyms": ["Continuous"]}]}, {"conceptId": "C81226", "definition": "Time Imputation Flag: Indicates the level of imputation reflected in a time value.", "extensible": "false", "name": "Time Imputation Flag", "preferredTerm": "CDISC ADaM Time Imputation Flag Terminology", "submissionValue": "TIMEFL", "synonyms": ["Time Imputation Flag"], "terms": [{"conceptId": "C81213", "definition": "Hours Imputed: Entire time (hours, minutes and seconds) is imputed.", "preferredTerm": "Hours Minutes Seconds Imputed", "submissionValue": "H"}, {"conceptId": "C81214", "definition": "Minutes Imputed: Minutes and seconds are imputed.", "preferredTerm": "Minutes Seconds Imputed", "submissionValue": "M"}, {"conceptId": "C81215", "definition": "Seconds Imputed: Seconds are imputed.", "preferredTerm": "Seconds Imputed", "submissionValue": "S"}]}, {"conceptId": "C204414", "definition": "A terminology codelist containing the responses for a tobacco product category.", "extensible": "true", "name": "Tobacco Product Category Response", "preferredTerm": "CDISC ADaM Tobacco Product Category Response Terminology", "submissionValue": "TPCATRS", "synonyms": ["Tobacco Product Category Response"], "terms": [{"conceptId": "C1802", "definition": "A tobacco product that meets the definition of the term \"cigarette\" in section 3(1) of the Federal Cigarette Labeling and Advertising Act (any roll of tobacco wrapped in paper or in any substance not containing tobacco), and includes tobacco, in any form, that is functional in the product, which, because of its appearance, the type of tobacco used in the filler, or its packaging and labeling, is likely to be offered to, or purchased by, consumers as a cigarette or as roll-your-own tobacco (FD&C Act Section 900(3); 15 U.S.C. Ch. 36: CIGARETTE LABELING AND ADVERTISING). Note: The US FDA uses the term \"cigarettes\" to refer to combusted cigarettes, unless specifically stated otherwise. In general, the term is not meant to include any noncombusted tobacco products that meet the definition of cigarette in Section 900(3) of the Federal Food, Drug, and Cosmetic Act (21 U.S.C. Section 387(3)).", "preferredTerm": "Cigarette", "submissionValue": "CIGARETTES"}, {"conceptId": "C1813", "definition": "A tobacco product that (1) is not a cigarette and (2) is a roll of tobacco wrapped in leaf tobacco or any substance containing tobacco. (FDA CTP Glossary; 26 U.S.C. Section 5702(a))", "preferredTerm": "Cigar", "submissionValue": "CIGARS"}, {"conceptId": "C128795", "definition": "A tobacco product that is a device used to deliver e-liquid in aerosol form for inhalation. (FDA CTP Glossary)", "preferredTerm": "Electronic Nicotine Delivery Device", "submissionValue": "ELECTRONIC NICOTINE DELIVERY SYSTEMS (ENDS)"}, {"conceptId": "C175552", "definition": "Any tobacco product or associated parts and components that, because of its appearance, type, packaging, labeling, or associated parts and components, heats tobacco filler and can be used with e-liquids and/or other consumables. This includes products that meet the definition of a cigarette and are not burned like a cigarette.", "preferredTerm": "Heated Tobacco Product", "submissionValue": "HEATED TOBACCO PRODUCTS", "synonyms": ["Heat Not Burn", "HTP", "Tobacco Heating System"]}, {"conceptId": "C214744", "definition": "Any tobacco product or associated parts and components that, because of its appearance, type, packaging, labeling, or associated parts and components, is intended for use in a smoking pipe with a bowl and a stem.", "preferredTerm": "Pipe Tobacco Product", "submissionValue": "PIPE TOBACCO PRODUCTS"}, {"conceptId": "C214742", "definition": "Any tobacco product or associated parts and components that, because of its appearance, type, packaging, labeling or associated parts and components, is suitable for use by consumers for making cigarettes.", "preferredTerm": "Roll-your-own Tobacco Product", "submissionValue": "ROLL-YOUR-OWN TOBACCO PRODUCTS", "synonyms": ["RYO Product"]}, {"conceptId": "C214743", "definition": "Any tobacco product that is intended to be placed in the oral or nasal cavity. It may consist of cut, ground, powdered, or leaf tobacco.", "preferredTerm": "Smokeless Tobacco Product", "submissionValue": "SMOKELESS TOBACCO PRODUCTS"}, {"conceptId": "C214745", "definition": "Any tobacco product or associated parts and components that, because of its appearance, type, packaging, labeling, or associated parts and components, burns tobacco filler in a bowl and generates smoke that passes through a liquid into a hose and/or mouthpiece.", "preferredTerm": "Waterpipe Tobacco Product", "submissionValue": "WATERPIPE TOBACCO PRODUCTS", "synonyms": ["Hookah Tobacco Product", "Shisha Tobacco Product"]}]}, {"conceptId": "C204413", "definition": "A terminology codelist containing the responses for tobacco product use status.", "extensible": "true", "name": "Tobacco Product Use Status Response", "preferredTerm": "CDISC ADaM Tobacco Product Use Status Response Terminology", "submissionValue": "TPUSRS", "synonyms": ["Tobacco Product Use Status Response"], "terms": [{"conceptId": "C25471", "definition": "Occurring in or belonging to the present time. (NCI)", "preferredTerm": "Current", "submissionValue": "CURRENT"}, {"conceptId": "C25627", "definition": "Occurring prior to something else. (NCI)", "preferredTerm": "Previous", "submissionValue": "FORMER", "synonyms": ["Previous"]}, {"conceptId": "C70543", "definition": "Not ever; at no time in the past.", "preferredTerm": "Never", "submissionValue": "NEVER"}]}, {"conceptId": "C204412", "definition": "A terminology codelist containing the responses for tobacco use transition.", "extensible": "true", "name": "Tobacco Use Transition Response", "preferredTerm": "CDISC ADaM Tobacco Use Transition Response Terminology", "submissionValue": "TBUTRS", "synonyms": ["Tobacco Use Transition Response"], "terms": [{"conceptId": "C96001", "definition": "The act of ceasing use of a tobacco product temporarily or permanently (moving from 'Current to 'Former' tobacco product use state).", "preferredTerm": "Tobacco Product Use Cessation", "submissionValue": "CESSATION"}, {"conceptId": "C210056", "definition": "The act of starting use (i.e., meeting the criteria of usage) of a tobacco product that has never been used before (moving from 'Never' to 'Current' tobacco product use state).", "preferredTerm": "Tobacco Product Use Initiation", "submissionValue": "INITIATION"}, {"conceptId": "C210057", "definition": "The act of re-starting use of a tobacco product after a period of product use cessation (moving from 'Former' to 'Current' tobacco product use state).", "preferredTerm": "Tobacco Product Use Relapse", "submissionValue": "RELAPSE"}, {"conceptId": "C210058", "definition": "The act of replacing one tobacco product with another.", "preferredTerm": "Tobacco Product Use Switching", "submissionValue": "SWITCHING"}]}], "description": "CDISC Controlled Terminology for ADaM is the set of CDISC-developed or CDISC-adopted standard expressions (values) used with data items within CDISC-defined ADAM datasets.", "effectiveDate": "2025-09-26", "label": "ADaM Controlled Terminology Package 60 Effective 2025-09-26", "name": "ADaM CT 2025-09-26", "registrationStatus": "Final", "source": "ADaM Controlled Terminology developed by the CDISC Terminology Team in collaboration with the National Cancer Institute's Enterprise Vocabulary Services (EVS)", "version": "2025-09-26"}
