{"_links": {"priorVersion": {"href": "/mdr/ct/packages/sdtmct-2025-03-28", "title": "SDTM Controlled Terminology Package 59 Effective 2025-03-28", "type": "Terminology"}, "self": {"href": "/mdr/ct/packages/sdtmct-2025-09-26", "title": "SDTM Controlled Terminology Package 60 Effective 2025-09-26", "type": "Terminology"}}, "codelists": [{"conceptId": "C141657", "definition": "10-Meter Walk/Run test code.", "extensible": "false", "name": "10-Meter Walk/Run Functional Test Test Code", "preferredTerm": "CDISC Functional Test 10-Meter Walk/Run Test Code Terminology", "submissionValue": "TENMW1TC", "synonyms": ["10-Meter Walk/Run Functional Test Test Code"], "terms": [{"conceptId": "C174106", "definition": "10-Meter Walk/Run - Was the 10-meter walk/run performed?", "preferredTerm": "10-Meter Walk/Run - Was Walk/Run Performed", "submissionValue": "TENMW101", "synonyms": ["TENMW1-Was Walk/Run Performed"]}, {"conceptId": "C141700", "definition": "10-Meter Walk/Run - If yes, time to walk or run 10 meters.", "preferredTerm": "10-Meter Walk/Run - Time to Walk/Run 10 Meters", "submissionValue": "TENMW102", "synonyms": ["TENMW1-Time to Walk/Run 10 Meters"]}, {"conceptId": "C147592", "definition": "10-Meter Walk/Run - If yes, did subject wear orthoses?", "preferredTerm": "10-Meter Walk/Run - Wear Orthoses", "submissionValue": "TENMW103", "synonyms": ["TENMW1-Wear Orthoses"]}, {"conceptId": "C141701", "definition": "10-Meter Walk/Run - Test grade.", "preferredTerm": "10-Meter Walk/Run - Test Grade", "submissionValue": "TENMW104", "synonyms": ["TENMW1-Test Grade"]}]}, {"conceptId": "C141656", "definition": "10-Meter Walk/Run test name.", "extensible": "false", "name": "10-Meter Walk/Run Functional Test Test Name", "preferredTerm": "CDISC Functional Test 10-Meter Walk/Run Test Name Terminology", "submissionValue": "TENMW1TN", "synonyms": ["10-Meter Walk/Run Functional Test Test Name"], "terms": [{"conceptId": "C141701", "definition": "10-Meter Walk/Run - Test grade.", "preferredTerm": "10-Meter Walk/Run - Test Grade", "submissionValue": "TENMW1-Test Grade", "synonyms": ["TENMW1-Test Grade"]}, {"conceptId": "C141700", "definition": "10-Meter Walk/Run - If yes, time to walk or run 10 meters.", "preferredTerm": "10-Meter Walk/Run - Time to Walk/Run 10 Meters", "submissionValue": "TENMW1-Time to Walk/Run 10 Meters", "synonyms": ["TENMW1-Time to Walk/Run 10 Meters"]}, {"conceptId": "C174106", "definition": "10-Meter Walk/Run - Was the 10-meter walk/run performed?", "preferredTerm": "10-Meter Walk/Run - Was Walk/Run Performed", "submissionValue": "TENMW1-Was Walk/Run Performed", "synonyms": ["TENMW1-Was Walk/Run Performed"]}, {"conceptId": "C147592", "definition": "10-Meter Walk/Run - If yes, did subject wear orthoses?", "preferredTerm": "10-Meter Walk/Run - Wear Orthoses", "submissionValue": "TENMW1-Wear Orthoses", "synonyms": ["TENMW1-Wear Orthoses"]}]}, {"conceptId": "C141663", "definition": "4-Stair Ascend test code.", "extensible": "false", "name": "4-Stair Ascend Functional Test Test Code", "preferredTerm": "CDISC Functional Test 4-Stair Ascend Test Code Terminology", "submissionValue": "A4STR1TC", "synonyms": ["4-Stair Ascend Functional Test Test Code"], "terms": [{"conceptId": "C174103", "definition": "4-Stair Ascend - Was the 4-stair ascend performed?", "preferredTerm": "4-Stair Ascend - Was 4-Stair Ascend Performed", "submissionValue": "A4STR101", "synonyms": ["A4STR1-Was 4-Stair Ascend Performed"]}, {"conceptId": "C141706", "definition": "4-Stair Ascend - If yes, time taken to do 4-stair ascend.", "preferredTerm": "4-Stair Ascend - Time to Do 4-Stair Ascend", "submissionValue": "A4STR102", "synonyms": ["A4STR1-Time to Do 4-Stair Ascend"]}, {"conceptId": "C147590", "definition": "4-Stair Ascend - If yes, did subject wear orthoses?", "preferredTerm": "4-Stair Ascend - Wear Orthoses", "submissionValue": "A4STR103", "synonyms": ["A4STR1-Wear Orthoses"]}, {"conceptId": "C141707", "definition": "4-Stair Ascend - Test grade.", "preferredTerm": "4-Stair Ascend - Test Grade", "submissionValue": "A4STR104", "synonyms": ["A4STR1-Test Grade"]}]}, {"conceptId": "C141662", "definition": "4-Stair Ascend test name.", "extensible": "false", "name": "4-Stair Ascend Functional Test Test Name", "preferredTerm": "CDISC Functional Test 4-Stair Ascend Test Name Terminology", "submissionValue": "A4STR1TN", "synonyms": ["4-Stair Ascend Functional Test Test Name"], "terms": [{"conceptId": "C141707", "definition": "4-Stair Ascend - Test grade.", "preferredTerm": "4-Stair Ascend - Test Grade", "submissionValue": "A4STR1-Test Grade", "synonyms": ["A4STR1-Test Grade"]}, {"conceptId": "C141706", "definition": "4-Stair Ascend - If yes, time taken to do 4-stair ascend.", "preferredTerm": "4-Stair Ascend - Time to Do 4-Stair Ascend", "submissionValue": "A4STR1-Time to Do 4-Stair Ascend", "synonyms": ["A4STR1-Time to Do 4-Stair Ascend"]}, {"conceptId": "C174103", "definition": "4-Stair Ascend - Was the 4-stair ascend performed?", "preferredTerm": "4-Stair Ascend - Was 4-Stair Ascend Performed", "submissionValue": "A4STR1-Was 4-Stair Ascend Performed", "synonyms": ["A4STR1-Was 4-Stair Ascend Performed"]}, {"conceptId": "C147590", "definition": "4-Stair Ascend - If yes, did subject wear orthoses?", "preferredTerm": "4-Stair Ascend - Wear Orthoses", "submissionValue": "A4STR1-Wear Orthoses", "synonyms": ["A4STR1-Wear Orthoses"]}]}, {"conceptId": "C141661", "definition": "4-Stair Descend test code.", "extensible": "false", "name": "4-Stair Descend Functional Test Test Code", "preferredTerm": "CDISC Functional Test 4-Stair Descend Test Code Terminology", "submissionValue": "D4STR1TC", "synonyms": ["4-Stair Descend Functional Test Test Code"], "terms": [{"conceptId": "C174104", "definition": "4-Stair Descend - Was the 4-stair descend performed?", "preferredTerm": "4-Stair Descend - Was 4-Stair Descend Performed", "submissionValue": "D4STR101", "synonyms": ["D4STR1-Was 4-Stair Descend Performed"]}, {"conceptId": "C141704", "definition": "4-Stair Descend - If yes, time taken to do 4-stair descend.", "preferredTerm": "4-Stair Descend - Time to Do 4-Stair Descend", "submissionValue": "D4STR102", "synonyms": ["D4STR1-Time to Do 4-Stair Descend"]}, {"conceptId": "C147591", "definition": "4-Stair Descend - If yes, did subject wear orthoses?", "preferredTerm": "4-Stair Descend - Wear Orthoses", "submissionValue": "D4STR103", "synonyms": ["D4STR1-Wear Orthoses"]}, {"conceptId": "C141705", "definition": "4-Stair Descend - Test grade.", "preferredTerm": "4-Stair Descend - Test Grade", "submissionValue": "D4STR104", "synonyms": ["D4STR1-Test Grade"]}]}, {"conceptId": "C141660", "definition": "4-Stair Descend test name.", "extensible": "false", "name": "4-Stair Descend Functional Test Test Name", "preferredTerm": "CDISC Functional Test 4-Stair Descend Test Name Terminology", "submissionValue": "D4STR1TN", "synonyms": ["4-Stair Descend Functional Test Test Name"], "terms": [{"conceptId": "C141705", "definition": "4-Stair Descend - Test grade.", "preferredTerm": "4-Stair Descend - Test Grade", "submissionValue": "D4STR1-Test Grade", "synonyms": ["D4STR1-Test Grade"]}, {"conceptId": "C141704", "definition": "4-Stair Descend - If yes, time taken to do 4-stair descend.", "preferredTerm": "4-Stair Descend - Time to Do 4-Stair Descend", "submissionValue": "D4STR1-Time to Do 4-Stair Descend", "synonyms": ["D4STR1-Time to Do 4-Stair Descend"]}, {"conceptId": "C174104", "definition": "4-Stair Descend - Was the 4-stair descend performed?", "preferredTerm": "4-Stair Descend - Was 4-Stair Descend Performed", "submissionValue": "D4STR1-Was 4-Stair Descend Performed", "synonyms": ["D4STR1-Was 4-Stair Descend Performed"]}, {"conceptId": "C147591", "definition": "4-Stair Descend - If yes, did subject wear orthoses?", "preferredTerm": "4-Stair Descend - Wear Orthoses", "submissionValue": "D4STR1-Wear Orthoses", "synonyms": ["D4STR1-Wear Orthoses"]}]}, {"conceptId": "C115388", "definition": "6 Minute Walk Test test code.", "extensible": "false", "name": "6 Minute Walk Functional Test Test Code", "preferredTerm": "CDISC Functional Test 6MWT Test Code Terminology", "submissionValue": "SIXMW1TC", "synonyms": ["6 Minute Walk Functional Test Test Code"], "terms": [{"conceptId": "C115800", "definition": "6 Minute Walk Test - Distance at 1 minute.", "preferredTerm": "6MWT - Distance at 1 Minute", "submissionValue": "SIXMW101", "synonyms": ["SIXMW1-Distance at 1 Minute"]}, {"conceptId": "C115801", "definition": "6 Minute Walk Test - Distance at 2 minutes.", "preferredTerm": "6MWT - Distance at 2 Minutes", "submissionValue": "SIXMW102", "synonyms": ["SIXMW1-Distance at 2 Minutes"]}, {"conceptId": "C115802", "definition": "6 Minute Walk Test - Distance at 3 minutes.", "preferredTerm": "6MWT - Distance at 3 Minutes", "submissionValue": "SIXMW103", "synonyms": ["SIXMW1-Distance at 3 Minutes"]}, {"conceptId": "C115803", "definition": "6 Minute Walk Test - Distance at 4 minutes.", "preferredTerm": "6MWT - Distance at 4 Minutes", "submissionValue": "SIXMW104", "synonyms": ["SIXMW1-Distance at 4 Minutes"]}, {"conceptId": "C115804", "definition": "6 Minute Walk Test - Distance at 5 minutes.", "preferredTerm": "6MWT - Distance at 5 Minutes", "submissionValue": "SIXMW105", "synonyms": ["SIXMW1-Distance at 5 Minutes"]}, {"conceptId": "C115805", "definition": "6 Minute Walk Test - Distance at 6 minutes.", "preferredTerm": "6MWT - Distance at 6 Minutes", "submissionValue": "SIXMW106", "synonyms": ["SIXMW1-Distance at 6 Minutes"]}]}, {"conceptId": "C115387", "definition": "6 Minute Walk Test test name.", "extensible": "false", "name": "6 Minute Walk Functional Test Test Name", "preferredTerm": "CDISC Functional Test 6MWT Test Name Terminology", "submissionValue": "SIXMW1TN", "synonyms": ["6 Minute Walk Functional Test Test Name"], "terms": [{"conceptId": "C115800", "definition": "6 Minute Walk Test - Distance at 1 minute.", "preferredTerm": "6MWT - Distance at 1 Minute", "submissionValue": "SIXMW1-Distance at 1 Minute", "synonyms": ["SIXMW1-Distance at 1 Minute"]}, {"conceptId": "C115801", "definition": "6 Minute Walk Test - Distance at 2 minutes.", "preferredTerm": "6MWT - Distance at 2 Minutes", "submissionValue": "SIXMW1-Distance at 2 Minutes", "synonyms": ["SIXMW1-Distance at 2 Minutes"]}, {"conceptId": "C115802", "definition": "6 Minute Walk Test - Distance at 3 minutes.", "preferredTerm": "6MWT - Distance at 3 Minutes", "submissionValue": "SIXMW1-Distance at 3 Minutes", "synonyms": ["SIXMW1-Distance at 3 Minutes"]}, {"conceptId": "C115803", "definition": "6 Minute Walk Test - Distance at 4 minutes.", "preferredTerm": "6MWT - Distance at 4 Minutes", "submissionValue": "SIXMW1-Distance at 4 Minutes", "synonyms": ["SIXMW1-Distance at 4 Minutes"]}, {"conceptId": "C115804", "definition": "6 Minute Walk Test - Distance at 5 minutes.", "preferredTerm": "6MWT - Distance at 5 Minutes", "submissionValue": "SIXMW1-Distance at 5 Minutes", "synonyms": ["SIXMW1-Distance at 5 Minutes"]}, {"conceptId": "C115805", "definition": "6 Minute Walk Test - Distance at 6 minutes.", "preferredTerm": "6MWT - Distance at 6 Minutes", "submissionValue": "SIXMW1-Distance at 6 Minutes", "synonyms": ["SIXMW1-Distance at 6 Minutes"]}]}, {"conceptId": "C182464", "definition": "Abnormal Involuntary Movement Scale original result for AIMS0101 through AIMS0107 test and test code.", "extensible": "false", "name": "Abnormal Involuntary Movement Scale Clinical Classification ORRES for AIMS0101 Through AIMS0107 TN/TC", "preferredTerm": "CDISC Clinical Classification Abnormal Involuntary Movement Scale AIMS0101 Through AIMS0107 Original Response Terminology", "submissionValue": "AIMS0101T07OR", "synonyms": ["Abnormal Involuntary Movement Scale Clinical Classification ORRES for AIMS0101 Through AIMS0107 TN/TC"], "terms": [{"conceptId": "C182674", "definition": "Abnormal Involuntary Movement Scale original result for AIMS0101 through AIMS0107-Mild.", "preferredTerm": "Abnormal Involuntary Movement Scale AIMS0101 Through AIMS0107 Original Result - Mild", "submissionValue": "Mild", "synonyms": ["AIMS0101 through AIMS0107-Mild"]}, {"conceptId": "C182673", "definition": "Abnormal Involuntary Movement Scale original result for AIMS0101 through AIMS0107-Minimal, may be extreme normal.", "preferredTerm": "Abnormal Involuntary Movement Scale AIMS0101 Through AIMS0107 Original Result - Minimal, may be extreme normal", "submissionValue": "Minimal, may be extreme normal", "synonyms": ["AIMS0101 through AIMS0107-Minimal, may be extreme normal"]}, {"conceptId": "C182675", "definition": "Abnormal Involuntary Movement Scale original result for AIMS0101 through AIMS0107-Moderate.", "preferredTerm": "Abnormal Involuntary Movement Scale AIMS0101 Through AIMS0107 Original Result - Moderate", "submissionValue": "Moderate", "synonyms": ["AIMS0101 through AIMS0107-Moderate"]}, {"conceptId": "C182672", "definition": "Abnormal Involuntary Movement Scale original result for AIMS0101 through AIMS0107-None.", "preferredTerm": "Abnormal Involuntary Movement Scale AIMS0101 Through AIMS0107 Original Result - None", "submissionValue": "None", "synonyms": ["AIMS0101 through AIMS0107-None"]}, {"conceptId": "C182676", "definition": "Abnormal Involuntary Movement Scale original result for AIMS0101 through AIMS0107-Severe.", "preferredTerm": "Abnormal Involuntary Movement Scale AIMS0101 Through AIMS0107 Original Result - Severe", "submissionValue": "Severe", "synonyms": ["AIMS0101 through AIMS0107-Severe"]}]}, {"conceptId": "C182465", "definition": "Abnormal Involuntary Movement Scale original result for AIMS0108 through AIMS0109 test and test code.", "extensible": "false", "name": "Abnormal Involuntary Movement Scale Clinical Classification ORRES for AIMS0108 Through AIMS0109 TN/TC", "preferredTerm": "CDISC Clinical Classification Abnormal Involuntary Movement Scale AIMS0108 Through AIMS0109 Original Response Terminology", "submissionValue": "AIMS0108T09OR", "synonyms": ["Abnormal Involuntary Movement Scale Clinical Classification ORRES for AIMS0108 Through AIMS0109 TN/TC"], "terms": [{"conceptId": "C182684", "definition": "Abnormal Involuntary Movement Scale original result for AIMS0108 through AIMS0109-Mild.", "preferredTerm": "Abnormal Involuntary Movement Scale AIMS0108 Through AIMS0109 Original Result - Mild", "submissionValue": "Mild", "synonyms": ["AIMS0108 through AIMS0109-Mild"]}, {"conceptId": "C182683", "definition": "Abnormal Involuntary Movement Scale original result for AIMS0108 through AIMS0109-Minimal.", "preferredTerm": "Abnormal Involuntary Movement Scale AIMS0108 Through AIMS0109 Original Result - Minimal", "submissionValue": "Minimal", "synonyms": ["AIMS0108 through AIMS0109-Minimal"]}, {"conceptId": "C182685", "definition": "Abnormal Involuntary Movement Scale original result for AIMS0108 through AIMS0109-Moderate.", "preferredTerm": "Abnormal Involuntary Movement Scale AIMS0108 Through AIMS0109 Original Result - Moderate", "submissionValue": "Moderate", "synonyms": ["AIMS0108 through AIMS0109-Moderate"]}, {"conceptId": "C182682", "definition": "Abnormal Involuntary Movement Scale original result for AIMS0108 through AIMS0109-None, normal.", "preferredTerm": "Abnormal Involuntary Movement Scale AIMS0108 Through AIMS0109 Original Result - None, normal", "submissionValue": "None, normal", "synonyms": ["AIMS0108 through AIMS0109-None, normal"]}, {"conceptId": "C182686", "definition": "Abnormal Involuntary Movement Scale original result for AIMS0108 through AIMS0109-Severe.", "preferredTerm": "Abnormal Involuntary Movement Scale AIMS0108 Through AIMS0109 Original Result - Severe", "submissionValue": "Severe", "synonyms": ["AIMS0108 through AIMS0109-Severe"]}]}, {"conceptId": "C182466", "definition": "Abnormal Involuntary Movement Scale original result for AIMS0110 test and test code.", "extensible": "false", "name": "Abnormal Involuntary Movement Scale Clinical Classification ORRES for AIMS0110 TN/TC", "preferredTerm": "CDISC Clinical Classification Abnormal Involuntary Movement Scale AIMS0110 Original Response Terminology", "submissionValue": "AIMS0110OR", "synonyms": ["Abnormal Involuntary Movement Scale Clinical Classification ORRES for AIMS0110 TN/TC"], "terms": [{"conceptId": "C182694", "definition": "Abnormal Involuntary Movement Scale original result for AIMS0110-Aware, mild distress.", "preferredTerm": "Abnormal Involuntary Movement Scale AIMS0110 Original Result - Aware, mild distress", "submissionValue": "Aware, mild distress", "synonyms": ["AIMS0110-Aware, mild distress"]}, {"conceptId": "C182695", "definition": "Abnormal Involuntary Movement Scale original result for AIMS0110-Aware, moderate distress.", "preferredTerm": "Abnormal Involuntary Movement Scale AIMS0110 Original Result - Aware, moderate distress", "submissionValue": "Aware, moderate distress", "synonyms": ["AIMS0110-Aware, moderate distress"]}, {"conceptId": "C182693", "definition": "Abnormal Involuntary Movement Scale original result for AIMS0110-Aware, no distress.", "preferredTerm": "Abnormal Involuntary Movement Scale AIMS0110 Original Result - Aware, no distress", "submissionValue": "Aware, no distress", "synonyms": ["AIMS0110-Aware, no distress"]}, {"conceptId": "C182696", "definition": "Abnormal Involuntary Movement Scale original result for AIMS0110-Aware, severe distress.", "preferredTerm": "Abnormal Involuntary Movement Scale AIMS0110 Original Result - Aware, severe distress", "submissionValue": "Aware, severe distress", "synonyms": ["AIMS0110-Aware, severe distress"]}, {"conceptId": "C182692", "definition": "Abnormal Involuntary Movement Scale original result for AIMS0110-No awareness.", "preferredTerm": "Abnormal Involuntary Movement Scale AIMS0110 Original Result - No awareness", "submissionValue": "No awareness", "synonyms": ["AIMS0110-No awareness"]}]}, {"conceptId": "C182467", "definition": "Abnormal Involuntary Movement Scale original result for AIMS0111 through AIMS0112 test and test code.", "extensible": "false", "name": "Abnormal Involuntary Movement Scale Clinical Classification ORRES for AIMS0111 Through AIMS0112 TN/TC", "preferredTerm": "CDISC Clinical Classification Abnormal Involuntary Movement Scale AIMS0111 Through AIMS0112 Original Response Terminology", "submissionValue": "AIMS0111T12OR", "synonyms": ["Abnormal Involuntary Movement Scale Clinical Classification ORRES for AIMS0111 Through AIMS0112 TN/TC"], "terms": [{"conceptId": "C182702", "definition": "Abnormal Involuntary Movement Scale original result for AIMS0111 through AIMS0112-No.", "preferredTerm": "Abnormal Involuntary Movement Scale AIMS0111 Through AIMS0112 Original Result - No", "submissionValue": "No", "synonyms": ["AIMS0111 through AIMS0112-No"]}, {"conceptId": "C182703", "definition": "Abnormal Involuntary Movement Scale original result for AIMS0111 through AIMS0112-Yes.", "preferredTerm": "Abnormal Involuntary Movement Scale AIMS0111 Through AIMS0112 Original Result - Yes", "submissionValue": "Yes", "synonyms": ["AIMS0111 through AIMS0112-Yes"]}]}, {"conceptId": "C182502", "definition": "Abnormal Involuntary Movement Scale standardized character result for AIMS0101 through AIMS0107 test and test code.", "extensible": "false", "name": "Abnormal Involuntary Movement Scale Clinical Classification STRESC for AIMS0101 Through AIMS0107 TN/TC", "preferredTerm": "CDISC Clinical Classification Abnormal Involuntary Movement Scale AIMS0101 Through AIMS0107 Standardized Character Response Terminology", "submissionValue": "AIMS0101T07STR", "synonyms": ["Abnormal Involuntary Movement Scale Clinical Classification STRESC for AIMS0101 Through AIMS0107 TN/TC"], "terms": [{"conceptId": "C182677", "definition": "Abnormal Involuntary Movement Scale standardized character result for AIMS0101 through AIMS0107-None.", "preferredTerm": "Abnormal Involuntary Movement Scale AIMS0101 Through AIMS0107 Standardized Character Result 0", "submissionValue": "0", "synonyms": ["AIMS0101 through AIMS0107-0"]}, {"conceptId": "C182678", "definition": "Abnormal Involuntary Movement Scale standardized character result for AIMS0101 through AIMS0107-Minimal, may be extreme normal .", "preferredTerm": "Abnormal Involuntary Movement Scale AIMS0101 Through AIMS0107 Standardized Character Result 1", "submissionValue": "1", "synonyms": ["AIMS0101 through AIMS0107-1"]}, {"conceptId": "C182679", "definition": "Abnormal Involuntary Movement Scale standardized character result for AIMS0101 through AIMS0107-Mild.", "preferredTerm": "Abnormal Involuntary Movement Scale AIMS0101 Through AIMS0107 Standardized Character Result 2", "submissionValue": "2", "synonyms": ["AIMS0101 through AIMS0107-2"]}, {"conceptId": "C182680", "definition": "Abnormal Involuntary Movement Scale standardized character result for AIMS0101 through AIMS0107-Moderate.", "preferredTerm": "Abnormal Involuntary Movement Scale AIMS0101 Through AIMS0107 Standardized Character Result 3", "submissionValue": "3", "synonyms": ["AIMS0101 through AIMS0107-3"]}, {"conceptId": "C182681", "definition": "Abnormal Involuntary Movement Scale standardized character result for AIMS0101 through AIMS0107-Severe.", "preferredTerm": "Abnormal Involuntary Movement Scale AIMS0101 Through AIMS0107 Standardized Character Result 4", "submissionValue": "4", "synonyms": ["AIMS0101 through AIMS0107-4"]}]}, {"conceptId": "C182503", "definition": "Abnormal Involuntary Movement Scale standardized character result for AIMS0108 through AIMS0109 test and test code.", "extensible": "false", "name": "Abnormal Involuntary Movement Scale Clinical Classification STRESC for AIMS0108 Through AIMS0109 TN/TC", "preferredTerm": "CDISC Clinical Classification Abnormal Involuntary Movement Scale AIMS0108 Through AIMS0109 Standardized Character Response Terminology", "submissionValue": "AIMS0108T09STR", "synonyms": ["Abnormal Involuntary Movement Scale Clinical Classification STRESC for AIMS0108 Through AIMS0109 TN/TC"], "terms": [{"conceptId": "C182687", "definition": "Abnormal Involuntary Movement Scale standardized character result for AIMS0108 through AIMS0109-None, normal.", "preferredTerm": "Abnormal Involuntary Movement Scale AIMS0108 Through AIMS0109 Standardized Character Result 0", "submissionValue": "0", "synonyms": ["AIMS0108 through AIMS0109-0"]}, {"conceptId": "C182688", "definition": "Abnormal Involuntary Movement Scale standardized character result for AIMS0108 through AIMS0109-Minimal.", "preferredTerm": "Abnormal Involuntary Movement Scale AIMS0108 Through AIMS0109 Standardized Character Result 1", "submissionValue": "1", "synonyms": ["AIMS0108 through AIMS0109-1"]}, {"conceptId": "C182689", "definition": "Abnormal Involuntary Movement Scale standardized character result for AIMS0108 through AIMS0109-Mild.", "preferredTerm": "Abnormal Involuntary Movement Scale AIMS0108 Through AIMS0109 Standardized Character Result 2", "submissionValue": "2", "synonyms": ["AIMS0108 through AIMS0109-2"]}, {"conceptId": "C182690", "definition": "Abnormal Involuntary Movement Scale standardized character result for AIMS0108 through AIMS0109-Moderate.", "preferredTerm": "Abnormal Involuntary Movement Scale AIMS0108 Through AIMS0109 Standardized Character Result 3", "submissionValue": "3", "synonyms": ["AIMS0108 through AIMS0109-3"]}, {"conceptId": "C182691", "definition": "Abnormal Involuntary Movement Scale standardized character result for AIMS0108 through AIMS0109-Severe.", "preferredTerm": "Abnormal Involuntary Movement Scale AIMS0108 Through AIMS0109 Standardized Character Result 4", "submissionValue": "4", "synonyms": ["AIMS0108 through AIMS0109-4"]}]}, {"conceptId": "C182504", "definition": "Abnormal Involuntary Movement Scale standardized character result for AIMS0110 test and test code.", "extensible": "false", "name": "Abnormal Involuntary Movement Scale Clinical Classification STRESC for AIMS0110 TN/TC", "preferredTerm": "CDISC Clinical Classification Abnormal Involuntary Movement Scale AIMS0110 Standardized Character Response Terminology", "submissionValue": "AIMS0110STR", "synonyms": ["Abnormal Involuntary Movement Scale Clinical Classification STRESC for AIMS0110 TN/TC"], "terms": [{"conceptId": "C182697", "definition": "Abnormal Involuntary Movement Scale standardized character result for AIMS0110-No awareness.", "preferredTerm": "Abnormal Involuntary Movement Scale AIMS0110 Standardized Character Result 0", "submissionValue": "0", "synonyms": ["AIMS0110-0"]}, {"conceptId": "C182698", "definition": "Abnormal Involuntary Movement Scale standardized character result for AIMS0110-Aware, no distress.", "preferredTerm": "Abnormal Involuntary Movement Scale AIMS0110 Standardized Character Result 1", "submissionValue": "1", "synonyms": ["AIMS0110-1"]}, {"conceptId": "C182699", "definition": "Abnormal Involuntary Movement Scale standardized character result for AIMS0110-Aware, mild distress.", "preferredTerm": "Abnormal Involuntary Movement Scale AIMS0110 Standardized Character Result 2", "submissionValue": "2", "synonyms": ["AIMS0110-2"]}, {"conceptId": "C182700", "definition": "Abnormal Involuntary Movement Scale standardized character result for AIMS0110-Aware, moderate distress.", "preferredTerm": "Abnormal Involuntary Movement Scale AIMS0110 Standardized Character Result 3", "submissionValue": "3", "synonyms": ["AIMS0110-3"]}, {"conceptId": "C182701", "definition": "Abnormal Involuntary Movement Scale standardized character result for AIMS0110-Aware, severe distress.", "preferredTerm": "Abnormal Involuntary Movement Scale AIMS0110 Standardized Character Result 4", "submissionValue": "4", "synonyms": ["AIMS0110-4"]}]}, {"conceptId": "C182505", "definition": "Abnormal Involuntary Movement Scale standardized character result for AIMS0111 through AIMS0112 test and test code.", "extensible": "false", "name": "Abnormal Involuntary Movement Scale Clinical Classification STRESC for AIMS0111 Through AIMS0112 TN/TC", "preferredTerm": "CDISC Clinical Classification Abnormal Involuntary Movement Scale AIMS0111 Through AIMS0112 Standardized Character Response Terminology", "submissionValue": "AIMS0111T12STR", "synonyms": ["Abnormal Involuntary Movement Scale Clinical Classification STRESC for AIMS0111 Through AIMS0112 TN/TC"], "terms": [{"conceptId": "C182704", "definition": "Abnormal Involuntary Movement Scale standardized character result for AIMS0111 through AIMS0112-No.", "preferredTerm": "Abnormal Involuntary Movement Scale AIMS0111 through AIMS0112 Standardized Character Result 0", "submissionValue": "0", "synonyms": ["AIMS0111 through AIMS0112-0"]}, {"conceptId": "C182705", "definition": "Abnormal Involuntary Movement Scale standardized character result for AIMS0111 through AIMS0112-Yes.", "preferredTerm": "Abnormal Involuntary Movement Scale AIMS0111 through AIMS0112 Standardized Character Result 1", "submissionValue": "1", "synonyms": ["AIMS0111 through AIMS0112-1"]}]}, {"conceptId": "C101805", "definition": "Abnormal Involuntary Movement Scale test code.", "extensible": "false", "name": "Abnormal Involuntary Movement Scale Clinical Classification Test Code", "preferredTerm": "CDISC Clinical Classification AIMS Test Code Terminology", "submissionValue": "AIMS01TC", "synonyms": ["Abnormal Involuntary Movement Scale Clinical Classification Test Code"], "terms": [{"conceptId": "C102034", "definition": "Abnormal Involuntary Movement Scale - Facial and Oral Movements, Muscles of facial expression, e.g., movements of forehead, eyebrows, periorbital area, cheeks. Include frowning, blinking, grimacing of upper face.", "preferredTerm": "AIMS - Muscles of Facial Expression", "submissionValue": "AIMS0101", "synonyms": ["AIMS01-Muscles of Facial Expression"]}, {"conceptId": "C102035", "definition": "Abnormal Involuntary Movement Scale - Facial and Oral Movements, Lips and perioral area, e.g., puckering, pouting, smacking.", "preferredTerm": "AIMS - Lips and Perioral Area", "submissionValue": "AIMS0102", "synonyms": ["AIMS01-Lips and Perioral Area"]}, {"conceptId": "C102036", "definition": "Abnormal Involuntary Movement Scale - Facial and Oral Movements, Jaw, e.g., biting, clenching, chewing, mouth opening, lateral movement.", "preferredTerm": "AIMS - Jaw", "submissionValue": "AIMS0103", "synonyms": ["AIMS01-Jaw"]}, {"conceptId": "C102037", "definition": "Abnormal Involuntary Movement Scale - Facial and Oral Movements, Tongue. Rate only increase in movement both in and out of mouth, not inability to sustain movement.", "preferredTerm": "AIMS - Tongue", "submissionValue": "AIMS0104", "synonyms": ["AIMS01-Tongue"]}, {"conceptId": "C102038", "definition": "Abnormal Involuntary Movement Scale - Extremity Movements, Upper (arms, wrists, hands, fingers). Include movements that are choreic (rapid, objectively purposeless, irregular, spontaneous) or athetoid (slow, irregular, complex, serpentine). Do not include tremor (repetitive, regular, rhythmic movements).", "preferredTerm": "AIMS - Upper Extremities", "submissionValue": "AIMS0105", "synonyms": ["AIMS01-Upper Extremities"]}, {"conceptId": "C102039", "definition": "Abnormal Involuntary Movement Scale - Extremity Movements, Lower (legs, knees, ankles, toes), e.g., lateral knee movement, foot tapping, heel dropping, foot squirming, inversion and eversion of foot.", "preferredTerm": "AIMS - Lower Extremities", "submissionValue": "AIMS0106", "synonyms": ["AIMS01-Lower Extremities"]}, {"conceptId": "C102040", "definition": "Abnormal Involuntary Movement Scale - Trunk Movements, Neck, shoulders, hips, e.g., rocking, twisting, squirming, pelvic gyrations. Include diaphragmatic movements.", "preferredTerm": "AIMS - Neck, Shoulders, Hips", "submissionValue": "AIMS0107", "synonyms": ["AIMS01-Neck, Shoulders, Hips"]}, {"conceptId": "C102041", "definition": "Abnormal Involuntary Movement Scale - Global Judgments, Severity of abnormal movements, based on the highest single score on the above items.", "preferredTerm": "AIMS - Severity of Abnormal Movements", "submissionValue": "AIMS0108", "synonyms": ["AIMS01-Severity of Abnormal Movements"]}, {"conceptId": "C102042", "definition": "Abnormal Involuntary Movement Scale - Global Judgments, Incapacitation due to abnormal movements.", "preferredTerm": "AIMS - Incapacitation Due to Abnormal Movements", "submissionValue": "AIMS0109", "synonyms": ["AIMS01-Incapacitation due Abn Movements"]}, {"conceptId": "C102043", "definition": "Abnormal Involuntary Movement Scale - Global Judgments, Patient's awareness of abnormal movements.", "preferredTerm": "AIMS - Patient's Awareness of Abnormal Movements", "submissionValue": "AIMS0110", "synonyms": ["AIMS01-Patient Awareness Abn Movements"]}, {"conceptId": "C102044", "definition": "Abnormal Involuntary Movement Scale - Dental Status, Current problems with teeth and/or dentures.", "preferredTerm": "AIMS - Current Teeth/Dentures Problems", "submissionValue": "AIMS0111", "synonyms": ["AIMS01-Current Problems Teeth/Dentures"]}, {"conceptId": "C102045", "definition": "Abnormal Involuntary Movement Scale - Dental Status, Does patient usually wear dentures?", "preferredTerm": "AIMS - Patient Usually Wears Dentures", "submissionValue": "AIMS0112", "synonyms": ["AIMS01-Patient Usually Wear Dentures"]}]}, {"conceptId": "C101806", "definition": "Abnormal Involuntary Movement Scale test name.", "extensible": "false", "name": "Abnormal Involuntary Movement Scale Clinical Classification Test Name", "preferredTerm": "CDISC Clinical Classification AIMS Test Name Terminology", "submissionValue": "AIMS01TN", "synonyms": ["Abnormal Involuntary Movement Scale Clinical Classification Test Name"], "terms": [{"conceptId": "C102044", "definition": "Abnormal Involuntary Movement Scale - Dental Status, Current problems with teeth and/or dentures.", "preferredTerm": "AIMS - Current Teeth/Dentures Problems", "submissionValue": "AIMS01-Current Problems Teeth/Dentures", "synonyms": ["AIMS01-Current Problems Teeth/Dentures"]}, {"conceptId": "C102042", "definition": "Abnormal Involuntary Movement Scale - Global Judgments, Incapacitation due to abnormal movements.", "preferredTerm": "AIMS - Incapacitation Due to Abnormal Movements", "submissionValue": "AIMS01-Incapacitation due Abn Movements", "synonyms": ["AIMS01-Incapacitation due Abn Movements"]}, {"conceptId": "C102036", "definition": "Abnormal Involuntary Movement Scale - Facial and Oral Movements, Jaw, e.g., biting, clenching, chewing, mouth opening, lateral movement.", "preferredTerm": "AIMS - Jaw", "submissionValue": "AIMS01-Jaw", "synonyms": ["AIMS01-Jaw"]}, {"conceptId": "C102035", "definition": "Abnormal Involuntary Movement Scale - Facial and Oral Movements, Lips and perioral area, e.g., puckering, pouting, smacking.", "preferredTerm": "AIMS - Lips and Perioral Area", "submissionValue": "AIMS01-Lips and Perioral Area", "synonyms": ["AIMS01-Lips and Perioral Area"]}, {"conceptId": "C102039", "definition": "Abnormal Involuntary Movement Scale - Extremity Movements, Lower (legs, knees, ankles, toes), e.g., lateral knee movement, foot tapping, heel dropping, foot squirming, inversion and eversion of foot.", "preferredTerm": "AIMS - Lower Extremities", "submissionValue": "AIMS01-Lower Extremities", "synonyms": ["AIMS01-Lower Extremities"]}, {"conceptId": "C102034", "definition": "Abnormal Involuntary Movement Scale - Facial and Oral Movements, Muscles of facial expression, e.g., movements of forehead, eyebrows, periorbital area, cheeks. Include frowning, blinking, grimacing of upper face.", "preferredTerm": "AIMS - Muscles of Facial Expression", "submissionValue": "AIMS01-Muscles of Facial Expression", "synonyms": ["AIMS01-Muscles of Facial Expression"]}, {"conceptId": "C102040", "definition": "Abnormal Involuntary Movement Scale - Trunk Movements, Neck, shoulders, hips, e.g., rocking, twisting, squirming, pelvic gyrations. Include diaphragmatic movements.", "preferredTerm": "AIMS - Neck, Shoulders, Hips", "submissionValue": "AIMS01-Neck, Shoulders, Hips", "synonyms": ["AIMS01-Neck, Shoulders, Hips"]}, {"conceptId": "C102043", "definition": "Abnormal Involuntary Movement Scale - Global Judgments, Patient's awareness of abnormal movements.", "preferredTerm": "AIMS - Patient's Awareness of Abnormal Movements", "submissionValue": "AIMS01-Patient Awareness Abn Movements", "synonyms": ["AIMS01-Patient Awareness Abn Movements"]}, {"conceptId": "C102045", "definition": "Abnormal Involuntary Movement Scale - Dental Status, Does patient usually wear dentures?", "preferredTerm": "AIMS - Patient Usually Wears Dentures", "submissionValue": "AIMS01-Patient Usually Wear Dentures", "synonyms": ["AIMS01-Patient Usually Wear Dentures"]}, {"conceptId": "C102041", "definition": "Abnormal Involuntary Movement Scale - Global Judgments, Severity of abnormal movements, based on the highest single score on the above items.", "preferredTerm": "AIMS - Severity of Abnormal Movements", "submissionValue": "AIMS01-Severity of Abnormal Movements", "synonyms": ["AIMS01-Severity of Abnormal Movements"]}, {"conceptId": "C102037", "definition": "Abnormal Involuntary Movement Scale - Facial and Oral Movements, Tongue. Rate only increase in movement both in and out of mouth, not inability to sustain movement.", "preferredTerm": "AIMS - Tongue", "submissionValue": "AIMS01-Tongue", "synonyms": ["AIMS01-Tongue"]}, {"conceptId": "C102038", "definition": "Abnormal Involuntary Movement Scale - Extremity Movements, Upper (arms, wrists, hands, fingers). Include movements that are choreic (rapid, objectively purposeless, irregular, spontaneous) or athetoid (slow, irregular, complex, serpentine). Do not include tremor (repetitive, regular, rhythmic movements).", "preferredTerm": "AIMS - Upper Extremities", "submissionValue": "AIMS01-Upper Extremities", "synonyms": ["AIMS01-Upper Extremities"]}]}, {"conceptId": "C189265", "definition": "Terminology relevant to the role of the individual or entity responsible for the receipt of the transferred object (e.g., device, specimen).", "extensible": "true", "name": "Accountable Party", "preferredTerm": "CDISC SDTM Accountable Party Terminology", "submissionValue": "ACCPARTY", "synonyms": ["Accountable Party"], "terms": [{"conceptId": "C70777", "definition": "Any healthcare organization, institution, facility or provider directly involved in conducting or facilitating a particular clinical study.", "preferredTerm": "Clinical Study Site", "submissionValue": "CLINICAL STUDY SITE", "synonyms": ["Site"]}, {"conceptId": "C165460", "definition": "A person or group that facilitates the exchange of items or information.", "preferredTerm": "Courier", "submissionValue": "COURIER"}, {"conceptId": "C80403", "definition": "The location at which a study investigator conducts study activities.", "preferredTerm": "Study Site", "submissionValue": "INVESTIGATOR SITE"}, {"conceptId": "C37984", "definition": "An organization with the capability and competency to perform scientific research, experiments, and measurements. (BRIDG)", "preferredTerm": "Laboratory", "submissionValue": "LABORATORY"}, {"conceptId": "C25392", "definition": "The organization defined as being responsible for creating the product as stated on the package in which the product is supplied. (BRIDG)", "preferredTerm": "Manufacturer", "submissionValue": "MANUFACTURER", "synonyms": ["Manufacturer"]}, {"conceptId": "C70793", "definition": "An individual, company, institution, or organization that takes responsibility for the initiation, management, and/or financing of a clinical study. [After ICH E6, WHO, 21 CFR 50.3 (e), and after IDMP]", "preferredTerm": "Clinical Study Sponsor", "submissionValue": "SPONSOR", "synonyms": ["Clinical Study Sponsor", "Sponsor", "Study Sponsor"]}, {"conceptId": "C189365", "definition": "The organization that manages the storage of items.", "preferredTerm": "Storage Facility", "submissionValue": "STORAGE FACILITY"}, {"conceptId": "C41189", "definition": "An individual who is observed, analyzed, examined, investigated, experimented upon, or/and treated in the course of a particular study.", "preferredTerm": "Study Subject", "submissionValue": "SUBJECT"}]}, {"conceptId": "C66767", "definition": "Terminology specifying changes to the study treatment as a result of an adverse event.", "extensible": "false", "name": "Action Taken with Study Treatment", "preferredTerm": "CDISC SDTM Action Taken with Study Treatment Terminology", "submissionValue": "ACN", "synonyms": ["Action Taken with Study Treatment"], "terms": [{"conceptId": "C49503", "definition": "An indication that a medication schedule was modified by addition; either by changing the frequency, strength or amount. (NCI)", "preferredTerm": "Dose Increased", "submissionValue": "DOSE INCREASED"}, {"conceptId": "C49504", "definition": "An indication that a medication schedule was maintained. (NCI)", "preferredTerm": "Dose Not Changed", "submissionValue": "DOSE NOT CHANGED"}, {"conceptId": "C150826", "definition": "An indication that the administration of a medication was modified by reducing the rate at which the dose was given, without reducing the total dose administered.", "preferredTerm": "Dose Rate Reduced", "submissionValue": "DOSE RATE REDUCED"}, {"conceptId": "C49505", "definition": "An indication that a medication schedule was modified by subtraction, either by changing the frequency, strength or amount. (NCI)", "preferredTerm": "Dose Reduced", "submissionValue": "DOSE REDUCED"}, {"conceptId": "C49501", "definition": "An indication that a medication schedule was modified by temporarily terminating a prescribed regimen of medication. (NCI)", "preferredTerm": "Drug Interrupted", "submissionValue": "DRUG INTERRUPTED"}, {"conceptId": "C49502", "definition": "An indication that a medication schedule was modified through termination of a prescribed regimen of medication. (NCI)", "preferredTerm": "Drug Withdrawn", "submissionValue": "DRUG WITHDRAWN"}, {"conceptId": "C48660", "definition": "Determination of a value is not relevant in the current context. (NCI)", "preferredTerm": "Not Applicable", "submissionValue": "NOT APPLICABLE", "synonyms": ["NA", "Not Applicable"]}, {"conceptId": "C17998", "definition": "Not known, not observed, not recorded, or refused. (NCI)", "preferredTerm": "Unknown", "submissionValue": "UNKNOWN", "synonyms": ["U", "UNK", "Unknown"]}]}, {"conceptId": "C204420", "definition": "Terminology specifying changes to product usage as a result of an adverse experience.", "extensible": "true", "name": "Action Taken with Tobacco Product", "preferredTerm": "CDISC SDTM Action Taken with Tobacco Product Terminology", "submissionValue": "TPACN", "synonyms": ["Action Taken with Tobacco Product"], "terms": [{"conceptId": "C48660", "definition": "Determination of a value is not relevant in the current context. (NCI)", "preferredTerm": "Not Applicable", "submissionValue": "NOT APPLICABLE", "synonyms": ["NA", "Not Applicable"]}, {"conceptId": "C210381", "definition": "An indication that product usage was increased, either by changing the frequency, strength or amount.", "preferredTerm": "Product Increased", "submissionValue": "PRODUCT INCREASED"}, {"conceptId": "C210382", "definition": "An indication that product usage was temporarily halted.", "preferredTerm": "Product Interrupted", "submissionValue": "PRODUCT INTERRUPTED"}, {"conceptId": "C210383", "definition": "An indication that product usage was maintained.", "preferredTerm": "Product Not Changed", "submissionValue": "PRODUCT NOT CHANGED"}, {"conceptId": "C210384", "definition": "An indication that product usage was decreased, either by changing the frequency, strength or amount.", "preferredTerm": "Product Reduced", "submissionValue": "PRODUCT REDUCED", "synonyms": ["Product Decreased"]}, {"conceptId": "C210385", "definition": "An indication that product usage was permanently halted.", "preferredTerm": "Product Stopped", "submissionValue": "PRODUCT STOPPED"}, {"conceptId": "C17998", "definition": "Not known, not observed, not recorded, or refused. (NCI)", "preferredTerm": "Unknown", "submissionValue": "UNKNOWN", "synonyms": ["U", "UNK", "Unknown"]}]}, {"conceptId": "C101865", "definition": "A classification of the presentation of acute coronary syndrome.", "extensible": "false", "name": "Acute Coronary Syndrome Presentation Category", "preferredTerm": "CDISC SDTM Acute Coronary Syndrome Presentation Category Terminology", "submissionValue": "ACSPCAT", "synonyms": ["Acute Coronary Syndrome Presentation Category"], "terms": [{"conceptId": "C80383", "definition": "A myocardial infarction that does not produce elevation in the ST segments of the ECG.", "preferredTerm": "Non-ST Elevation Myocardial Infarction by ECG Finding", "submissionValue": "NON-ST ELEVATION MYOCARDIAL INFARCTION", "synonyms": ["NON-STEMI", "NSTEMI"]}, {"conceptId": "C101888", "definition": "A myocardial infarction that produces elevation in the ST segments of the ECG.", "preferredTerm": "ST Elevation Myocardial Infarction by ECG Finding", "submissionValue": "ST ELEVATION MYOCARDIAL INFARCTION", "synonyms": ["STEMI"]}, {"conceptId": "C66914", "definition": "Angina pectoris which has not recently changed in frequency, duration or intensity. Stable angina pectoris is relieved by rest or administration of oral, sublingual or transdermal antianginal medications.", "preferredTerm": "Stable Angina", "submissionValue": "STABLE ANGINA"}, {"conceptId": "C66911", "definition": "Angina pectoris (or equivalent type of ischemic discomfort) which has recently changed in frequency, duration, intensity, or occurs at rest.", "preferredTerm": "Unstable Angina", "submissionValue": "UNSTABLE ANGINA"}]}, {"conceptId": "C182484", "definition": "Acute Physiology and Chronic Health Evaluation II original result for APCH101 test and test code.", "extensible": "false", "name": "Acute Physiology and Chronic Health Evaluation II Clinical Classification ORRES for APCH101 TN/TC", "preferredTerm": "CDISC Clinical Classification Acute Physiology and Chronic Health Evaluation II APCH101 Original Response Terminology", "submissionValue": "APCH101OR", "synonyms": ["Acute Physiology and Chronic Health Evaluation II Clinical Classification ORRES for APCH101 TN/TC"], "terms": [{"conceptId": "C182888", "definition": "Acute Physiology and Chronic Health Evaluation II original result for APCH101-30-31.9.", "preferredTerm": "Acute Physiology and Chronic Health Evaluation II APCH101 Original Result - 30-31.9", "submissionValue": "30-31.9", "synonyms": ["APCH101-30-31.9"]}, {"conceptId": "C182887", "definition": "Acute Physiology and Chronic Health Evaluation II original result for APCH101-32-33.9.", "preferredTerm": "Acute Physiology and Chronic Health Evaluation II APCH101 Original Result - 32-33.9", "submissionValue": "32-33.9", "synonyms": ["APCH101-32-33.9"]}, {"conceptId": "C182886", "definition": "Acute Physiology and Chronic Health Evaluation II original result for APCH101-34-35.9.", "preferredTerm": "Acute Physiology and Chronic Health Evaluation II APCH101 Original Result - 34-35.9", "submissionValue": "34-35.9", "synonyms": ["APCH101-34-35.9"]}, {"conceptId": "C182885", "definition": "Acute Physiology and Chronic Health Evaluation II original result for APCH101-36-38.4.", "preferredTerm": "Acute Physiology and Chronic Health Evaluation II APCH101 Original Result - 36-38.4", "submissionValue": "36-38.4", "synonyms": ["APCH101-36-38.4"]}, {"conceptId": "C182884", "definition": "Acute Physiology and Chronic Health Evaluation II original result for APCH101-38.5-38.9.", "preferredTerm": "Acute Physiology and Chronic Health Evaluation II APCH101 Original Result - 38.5-38.9", "submissionValue": "38.5-38.9", "synonyms": ["APCH101-38.5-38.9"]}, {"conceptId": "C182883", "definition": "Acute Physiology and Chronic Health Evaluation II original result for APCH101-39-40.9.", "preferredTerm": "Acute Physiology and Chronic Health Evaluation II APCH101 Original Result - 39-40.9", "submissionValue": "39-40.9", "synonyms": ["APCH101-39-40.9"]}, {"conceptId": "C182889", "definition": "Acute Physiology and Chronic Health Evaluation II original result for APCH101-Less than or equal to 29.9.", "preferredTerm": "Acute Physiology and Chronic Health Evaluation II APCH101 Original Result - <=29.9", "submissionValue": "<=29.9", "synonyms": ["APCH101-<=29.9"]}, {"conceptId": "C182882", "definition": "Acute Physiology and Chronic Health Evaluation II original result for APCH101-Greater than or equal to 41.", "preferredTerm": "Acute Physiology and Chronic Health Evaluation II APCH101 Original Result - >=41", "submissionValue": ">=41", "synonyms": ["APCH101->=41"]}]}, {"conceptId": "C182485", "definition": "Acute Physiology and Chronic Health Evaluation II original result for APCH102 test and test code.", "extensible": "false", "name": "Acute Physiology and Chronic Health Evaluation II Clinical Classification ORRES for APCH102 TN/TC", "preferredTerm": "CDISC Clinical Classification Acute Physiology and Chronic Health Evaluation II APCH102 Original Response Terminology", "submissionValue": "APCH102OR", "synonyms": ["Acute Physiology and Chronic Health Evaluation II Clinical Classification ORRES for APCH102 TN/TC"], "terms": [{"conceptId": "C182897", "definition": "Acute Physiology and Chronic Health Evaluation II original result for APCH102-110-129.", "preferredTerm": "Acute Physiology and Chronic Health Evaluation II APCH102 Original Result - 110-129", "submissionValue": "110-129", "synonyms": ["APCH102-110-129"]}, {"conceptId": "C182896", "definition": "Acute Physiology and Chronic Health Evaluation II original result for APCH102-130-159.", "preferredTerm": "Acute Physiology and Chronic Health Evaluation II APCH102 Original Result - 130-159", "submissionValue": "130-159", "synonyms": ["APCH102-130-159"]}, {"conceptId": "C182899", "definition": "Acute Physiology and Chronic Health Evaluation II original result for APCH102-50-69.", "preferredTerm": "Acute Physiology and Chronic Health Evaluation II APCH102 Original Result - 50-69", "submissionValue": "50-69", "synonyms": ["APCH102-50-69"]}, {"conceptId": "C182898", "definition": "Acute Physiology and Chronic Health Evaluation II original result for APCH102-70-109.", "preferredTerm": "Acute Physiology and Chronic Health Evaluation II APCH102 Original Result - 70-109", "submissionValue": "70-109", "synonyms": ["APCH102-70-109"]}, {"conceptId": "C182900", "definition": "Acute Physiology and Chronic Health Evaluation II original result for APCH102-Less than or equal to 49.", "preferredTerm": "Acute Physiology and Chronic Health Evaluation II APCH102 Original Result - <=49", "submissionValue": "<=49", "synonyms": ["APCH102-<=49"]}, {"conceptId": "C182895", "definition": "Acute Physiology and Chronic Health Evaluation II original result for APCH102-Greater than or equal to 160.", "preferredTerm": "Acute Physiology and Chronic Health Evaluation II APCH102 Original Result - >=160", "submissionValue": ">=160", "synonyms": ["APCH102->=160"]}]}, {"conceptId": "C182486", "definition": "Acute Physiology and Chronic Health Evaluation II original result for APCH103 test and test code.", "extensible": "false", "name": "Acute Physiology and Chronic Health Evaluation II Clinical Classification ORRES for APCH103 TN/TC", "preferredTerm": "CDISC Clinical Classification Acute Physiology and Chronic Health Evaluation II APCH103 Original Response Terminology", "submissionValue": "APCH103OR", "synonyms": ["Acute Physiology and Chronic Health Evaluation II Clinical Classification ORRES for APCH103 TN/TC"], "terms": [{"conceptId": "C182907", "definition": "Acute Physiology and Chronic Health Evaluation II original result for APCH103-110-139.", "preferredTerm": "Acute Physiology and Chronic Health Evaluation II APCH103 Original Result - 110-139", "submissionValue": "110-139", "synonyms": ["APCH103-110-139"]}, {"conceptId": "C182906", "definition": "Acute Physiology and Chronic Health Evaluation II original result for APCH103-140-179.", "preferredTerm": "Acute Physiology and Chronic Health Evaluation II APCH103 Original Result - 140-179", "submissionValue": "140-179", "synonyms": ["APCH103-140-179"]}, {"conceptId": "C182910", "definition": "Acute Physiology and Chronic Health Evaluation II original result for APCH103-40-54.", "preferredTerm": "Acute Physiology and Chronic Health Evaluation II APCH103 Original Result - 40-54", "submissionValue": "40-54", "synonyms": ["APCH103-40-54"]}, {"conceptId": "C182909", "definition": "Acute Physiology and Chronic Health Evaluation II original result for APCH103-55-69.", "preferredTerm": "Acute Physiology and Chronic Health Evaluation II APCH103 Original Result - 55-69", "submissionValue": "55-69", "synonyms": ["APCH103-55-69"]}, {"conceptId": "C182908", "definition": "Acute Physiology and Chronic Health Evaluation II original result for APCH103-70-109.", "preferredTerm": "Acute Physiology and Chronic Health Evaluation II APCH103 Original Result - 70-109", "submissionValue": "70-109", "synonyms": ["APCH103-70-109"]}, {"conceptId": "C182911", "definition": "Acute Physiology and Chronic Health Evaluation II original result for APCH103-Less than or equal to 39.", "preferredTerm": "Acute Physiology and Chronic Health Evaluation II APCH103 Original Result - <=39", "submissionValue": "<=39", "synonyms": ["APCH103-<=39"]}, {"conceptId": "C182905", "definition": "Acute Physiology and Chronic Health Evaluation II original result for APCH103-Greater than or equal to 180.", "preferredTerm": "Acute Physiology and Chronic Health Evaluation II APCH103 Original Result - >=180", "submissionValue": ">=180", "synonyms": ["APCH103->=180"]}]}, {"conceptId": "C182487", "definition": "Acute Physiology and Chronic Health Evaluation II original result for APCH104 test and test code.", "extensible": "false", "name": "Acute Physiology and Chronic Health Evaluation II Clinical Classification ORRES for APCH104 TN/TC", "preferredTerm": "CDISC Clinical Classification Acute Physiology and Chronic Health Evaluation II APCH104 Original Response Terminology", "submissionValue": "APCH104OR", "synonyms": ["Acute Physiology and Chronic Health Evaluation II Clinical Classification ORRES for APCH104 TN/TC"], "terms": [{"conceptId": "C182920", "definition": "Acute Physiology and Chronic Health Evaluation II original result for APCH104-10-11.", "preferredTerm": "Acute Physiology and Chronic Health Evaluation II APCH104 Original Result - 10-11", "submissionValue": "10-11", "synonyms": ["APCH104-10-11"]}, {"conceptId": "C182919", "definition": "Acute Physiology and Chronic Health Evaluation II original result for APCH104-12-24.", "preferredTerm": "Acute Physiology and Chronic Health Evaluation II APCH104 Original Result - 12-24", "submissionValue": "12-24", "synonyms": ["APCH104-12-24"]}, {"conceptId": "C182918", "definition": "Acute Physiology and Chronic Health Evaluation II original result for APCH104-25-34.", "preferredTerm": "Acute Physiology and Chronic Health Evaluation II APCH104 Original Result - 25-34", "submissionValue": "25-34", "synonyms": ["APCH104-25-34"]}, {"conceptId": "C182917", "definition": "Acute Physiology and Chronic Health Evaluation II original result for APCH104-35-49.", "preferredTerm": "Acute Physiology and Chronic Health Evaluation II APCH104 Original Result - 35-49", "submissionValue": "35-49", "synonyms": ["APCH104-35-49"]}, {"conceptId": "C182921", "definition": "Acute Physiology and Chronic Health Evaluation II original result for APCH104-6-9.", "preferredTerm": "Acute Physiology and Chronic Health Evaluation II APCH104 Original Result - 6-9", "submissionValue": "6-9", "synonyms": ["APCH104-6-9"]}, {"conceptId": "C182922", "definition": "Acute Physiology and Chronic Health Evaluation II original result for APCH104-Less than or equal to 5.", "preferredTerm": "Acute Physiology and Chronic Health Evaluation II APCH104 Original Result - <=5", "submissionValue": "<=5", "synonyms": ["APCH104-<=5"]}, {"conceptId": "C182916", "definition": "Acute Physiology and Chronic Health Evaluation II original result for APCH104-Greater than or equal to 50.", "preferredTerm": "Acute Physiology and Chronic Health Evaluation II APCH104 Original Result - >=50", "submissionValue": ">=50", "synonyms": ["APCH104->=50"]}]}, {"conceptId": "C182488", "definition": "Acute Physiology and Chronic Health Evaluation II original result for APCH105A test and test code.", "extensible": "false", "name": "Acute Physiology and Chronic Health Evaluation II Clinical Classification ORRES for APCH105A TN/TC", "preferredTerm": "CDISC Clinical Classification Acute Physiology and Chronic Health Evaluation II APCH105A Original Response Terminology", "submissionValue": "APCH105AOR", "synonyms": ["Acute Physiology and Chronic Health Evaluation II Clinical Classification ORRES for APCH105A TN/TC"], "terms": [{"conceptId": "C182930", "definition": "Acute Physiology and Chronic Health Evaluation II original result for APCH105A-200-349.", "preferredTerm": "Acute Physiology and Chronic Health Evaluation II APCH105A Original Result - 200-349", "submissionValue": "200-349", "synonyms": ["APCH105A-200-349"]}, {"conceptId": "C182929", "definition": "Acute Physiology and Chronic Health Evaluation II original result for APCH105A-350-499.", "preferredTerm": "Acute Physiology and Chronic Health Evaluation II APCH105A Original Result - 350-499", "submissionValue": "350-499", "synonyms": ["APCH105A-350-499"]}, {"conceptId": "C182931", "definition": "Acute Physiology and Chronic Health Evaluation II original result for APCH105A-Less than 200.", "preferredTerm": "Acute Physiology and Chronic Health Evaluation II APCH105A Original Result - <200", "submissionValue": "<200", "synonyms": ["APCH105A-<200"]}, {"conceptId": "C182928", "definition": "Acute Physiology and Chronic Health Evaluation II original result for APCH105A-Greater than or equal to 500.", "preferredTerm": "Acute Physiology and Chronic Health Evaluation II APCH105A Original Result - >=500", "submissionValue": ">=500", "synonyms": ["APCH105A->=500"]}]}, {"conceptId": "C182489", "definition": "Acute Physiology and Chronic Health Evaluation II original result for APCH105B test and test code.", "extensible": "false", "name": "Acute Physiology and Chronic Health Evaluation II Clinical Classification ORRES for APCH105B TN/TC", "preferredTerm": "CDISC Clinical Classification Acute Physiology and Chronic Health Evaluation II APCH105B Original Response Terminology", "submissionValue": "APCH105BOR", "synonyms": ["Acute Physiology and Chronic Health Evaluation II Clinical Classification ORRES for APCH105B TN/TC"], "terms": [{"conceptId": "C182938", "definition": "Acute Physiology and Chronic Health Evaluation II original result for APCH105B-55-60.", "preferredTerm": "Acute Physiology and Chronic Health Evaluation II APCH105B Original Result - 55-60", "submissionValue": "55-60", "synonyms": ["APCH105B-55-60"]}, {"conceptId": "C182937", "definition": "Acute Physiology and Chronic Health Evaluation II original result for APCH105B-61-70.", "preferredTerm": "Acute Physiology and Chronic Health Evaluation II APCH105B Original Result - 61-70", "submissionValue": "61-70", "synonyms": ["APCH105B-61-70"]}, {"conceptId": "C182939", "definition": "Acute Physiology and Chronic Health Evaluation II original result for APCH105B-Less than 55.", "preferredTerm": "Acute Physiology and Chronic Health Evaluation II APCH105B Original Result - <55", "submissionValue": "<55", "synonyms": ["APCH105B-<55"]}, {"conceptId": "C182936", "definition": "Acute Physiology and Chronic Health Evaluation II original result for APCH105B-Greater than 70.", "preferredTerm": "Acute Physiology and Chronic Health Evaluation II APCH105B Original Result - >70", "submissionValue": ">70", "synonyms": ["APCH105B->70"]}]}, {"conceptId": "C182490", "definition": "Acute Physiology and Chronic Health Evaluation II original result for APCH106A test and test code.", "extensible": "false", "name": "Acute Physiology and Chronic Health Evaluation II Clinical Classification ORRES for APCH106A TN/TC", "preferredTerm": "CDISC Clinical Classification Acute Physiology and Chronic Health Evaluation II APCH106A Original Response Terminology", "submissionValue": "APCH106AOR", "synonyms": ["Acute Physiology and Chronic Health Evaluation II Clinical Classification ORRES for APCH106A TN/TC"], "terms": [{"conceptId": "C182949", "definition": "Acute Physiology and Chronic Health Evaluation II original result for APCH106A-7.15-7.24.", "preferredTerm": "Acute Physiology and Chronic Health Evaluation II APCH106A Original Result - 7.15-7.24", "submissionValue": "7.15-7.24", "synonyms": ["APCH106A-7.15-7.24"]}, {"conceptId": "C182948", "definition": "Acute Physiology and Chronic Health Evaluation II original result for APCH106A-7.25-7.32.", "preferredTerm": "Acute Physiology and Chronic Health Evaluation II APCH106A Original Result - 7.25-7.32", "submissionValue": "7.25-7.32", "synonyms": ["APCH106A-7.25-7.32"]}, {"conceptId": "C182947", "definition": "Acute Physiology and Chronic Health Evaluation II original result for APCH106A-7.33-7.49.", "preferredTerm": "Acute Physiology and Chronic Health Evaluation II APCH106A Original Result - 7.33-7.49", "submissionValue": "7.33-7.49", "synonyms": ["APCH106A-7.33-7.49"]}, {"conceptId": "C182946", "definition": "Acute Physiology and Chronic Health Evaluation II original result for APCH106A-7.5-7.59.", "preferredTerm": "Acute Physiology and Chronic Health Evaluation II APCH106A Original Result - 7.5-7.59", "submissionValue": "7.5-7.59", "synonyms": ["APCH106A-7.5-7.59"]}, {"conceptId": "C182945", "definition": "Acute Physiology and Chronic Health Evaluation II original result for APCH106A-7.6-7.69.", "preferredTerm": "Acute Physiology and Chronic Health Evaluation II APCH106A Original Result - 7.6-7.69", "submissionValue": "7.6-7.69", "synonyms": ["APCH106A-7.6-7.69"]}, {"conceptId": "C182950", "definition": "Acute Physiology and Chronic Health Evaluation II original result for APCH106A-Less than 7.15.", "preferredTerm": "Acute Physiology and Chronic Health Evaluation II APCH106A Original Result - <7.15", "submissionValue": "<7.15", "synonyms": ["APCH106A-<7.15"]}, {"conceptId": "C182944", "definition": "Acute Physiology and Chronic Health Evaluation II original result for APCH106A-Greater than or equal to 7.7.", "preferredTerm": "Acute Physiology and Chronic Health Evaluation II APCH106A Original Result - >=7.7", "submissionValue": ">=7.7", "synonyms": ["APCH106A->=7.7"]}]}, {"conceptId": "C182491", "definition": "Acute Physiology and Chronic Health Evaluation II original result for APCH106B test and test code.", "extensible": "false", "name": "Acute Physiology and Chronic Health Evaluation II Clinical Classification ORRES for APCH106B TN/TC", "preferredTerm": "CDISC Clinical Classification Acute Physiology and Chronic Health Evaluation II APCH106B Original Response Terminology", "submissionValue": "APCH106BOR", "synonyms": ["Acute Physiology and Chronic Health Evaluation II Clinical Classification ORRES for APCH106B TN/TC"], "terms": [{"conceptId": "C182961", "definition": "Acute Physiology and Chronic Health Evaluation II original result for APCH106B-15-17.9.", "preferredTerm": "Acute Physiology and Chronic Health Evaluation II APCH106B Original Result - 15-17.9", "submissionValue": "15-17.9", "synonyms": ["APCH106B-15-17.9"]}, {"conceptId": "C182960", "definition": "Acute Physiology and Chronic Health Evaluation II original result for APCH106B-18-21.9.", "preferredTerm": "Acute Physiology and Chronic Health Evaluation II APCH106B Original Result - 18-21.9", "submissionValue": "18-21.9", "synonyms": ["APCH106B-18-21.9"]}, {"conceptId": "C182959", "definition": "Acute Physiology and Chronic Health Evaluation II original result for APCH106B-22-31.9.", "preferredTerm": "Acute Physiology and Chronic Health Evaluation II APCH106B Original Result - 22-31.9", "submissionValue": "22-31.9", "synonyms": ["APCH106B-22-31.9"]}, {"conceptId": "C182958", "definition": "Acute Physiology and Chronic Health Evaluation II original result for APCH106B-32-40.9.", "preferredTerm": "Acute Physiology and Chronic Health Evaluation II APCH106B Original Result - 32-40.9", "submissionValue": "32-40.9", "synonyms": ["APCH106B-32-40.9"]}, {"conceptId": "C182957", "definition": "Acute Physiology and Chronic Health Evaluation II original result for APCH106B-41-51.9.", "preferredTerm": "Acute Physiology and Chronic Health Evaluation II APCH106B Original Result - 41-51.9", "submissionValue": "41-51.9", "synonyms": ["APCH106B-41-51.9"]}, {"conceptId": "C182962", "definition": "Acute Physiology and Chronic Health Evaluation II original result for APCH106B-Less than 15.", "preferredTerm": "Acute Physiology and Chronic Health Evaluation II APCH106B Original Result - <15", "submissionValue": "<15", "synonyms": ["APCH106B-<15"]}, {"conceptId": "C182956", "definition": "Acute Physiology and Chronic Health Evaluation II original result for APCH106B-Greater than or equal to 52.", "preferredTerm": "Acute Physiology and Chronic Health Evaluation II APCH106B Original Result - >=52", "submissionValue": ">=52", "synonyms": ["APCH106B->=52"]}]}, {"conceptId": "C182492", "definition": "Acute Physiology and Chronic Health Evaluation II original result for APCH107 test and test code.", "extensible": "false", "name": "Acute Physiology and Chronic Health Evaluation II Clinical Classification ORRES for APCH107 TN/TC", "preferredTerm": "CDISC Clinical Classification Acute Physiology and Chronic Health Evaluation II APCH107 Original Response Terminology", "submissionValue": "APCH107OR", "synonyms": ["Acute Physiology and Chronic Health Evaluation II Clinical Classification ORRES for APCH107 TN/TC"], "terms": [{"conceptId": "C182974", "definition": "Acute Physiology and Chronic Health Evaluation II original result for APCH107-111-119.", "preferredTerm": "Acute Physiology and Chronic Health Evaluation II APCH107 Original Result - 111-119", "submissionValue": "111-119", "synonyms": ["APCH107-111-119"]}, {"conceptId": "C182973", "definition": "Acute Physiology and Chronic Health Evaluation II original result for APCH107-120-129.", "preferredTerm": "Acute Physiology and Chronic Health Evaluation II APCH107 Original Result - 120-129", "submissionValue": "120-129", "synonyms": ["APCH107-120-129"]}, {"conceptId": "C182972", "definition": "Acute Physiology and Chronic Health Evaluation II original result for APCH107-130-149.", "preferredTerm": "Acute Physiology and Chronic Health Evaluation II APCH107 Original Result - 130-149", "submissionValue": "130-149", "synonyms": ["APCH107-130-149"]}, {"conceptId": "C182971", "definition": "Acute Physiology and Chronic Health Evaluation II original result for APCH107-150-154.", "preferredTerm": "Acute Physiology and Chronic Health Evaluation II APCH107 Original Result - 150-154", "submissionValue": "150-154", "synonyms": ["APCH107-150-154"]}, {"conceptId": "C182970", "definition": "Acute Physiology and Chronic Health Evaluation II original result for APCH107-155-159.", "preferredTerm": "Acute Physiology and Chronic Health Evaluation II APCH107 Original Result - 155-159", "submissionValue": "155-159", "synonyms": ["APCH107-155-159"]}, {"conceptId": "C182969", "definition": "Acute Physiology and Chronic Health Evaluation II original result for APCH107-160-179.", "preferredTerm": "Acute Physiology and Chronic Health Evaluation II APCH107 Original Result - 160-179", "submissionValue": "160-179", "synonyms": ["APCH107-160-179"]}, {"conceptId": "C182975", "definition": "Acute Physiology and Chronic Health Evaluation II original result for APCH107-Less than or equal to 110.", "preferredTerm": "Acute Physiology and Chronic Health Evaluation II APCH107 Original Result - <=110", "submissionValue": "<=110", "synonyms": ["APCH107-<=110"]}, {"conceptId": "C182968", "definition": "Acute Physiology and Chronic Health Evaluation II original result for APCH107-Greater than or equal to 180.", "preferredTerm": "Acute Physiology and Chronic Health Evaluation II APCH107 Original Result - >=180", "submissionValue": ">=180", "synonyms": ["APCH107->=180"]}]}, {"conceptId": "C182493", "definition": "Acute Physiology and Chronic Health Evaluation II original result for APCH108 test and test code.", "extensible": "false", "name": "Acute Physiology and Chronic Health Evaluation II Clinical Classification ORRES for APCH108 TN/TC", "preferredTerm": "CDISC Clinical Classification Acute Physiology and Chronic Health Evaluation II APCH108 Original Response Terminology", "submissionValue": "APCH108OR", "synonyms": ["Acute Physiology and Chronic Health Evaluation II Clinical Classification ORRES for APCH108 TN/TC"], "terms": [{"conceptId": "C182986", "definition": "Acute Physiology and Chronic Health Evaluation II original result for APCH108-2.5-2.9.", "preferredTerm": "Acute Physiology and Chronic Health Evaluation II APCH108 Original Result - 2.5-2.9", "submissionValue": "2.5-2.9", "synonyms": ["APCH108-2.5-2.9"]}, {"conceptId": "C182985", "definition": "Acute Physiology and Chronic Health Evaluation II original result for APCH108-3-3.4.", "preferredTerm": "Acute Physiology and Chronic Health Evaluation II APCH108 Original Result - 3-3.4", "submissionValue": "3-3.4", "synonyms": ["APCH108-3-3.4"]}, {"conceptId": "C182984", "definition": "Acute Physiology and Chronic Health Evaluation II original result for APCH108-3.5-5.4.", "preferredTerm": "Acute Physiology and Chronic Health Evaluation II APCH108 Original Result - 3.5-5.4", "submissionValue": "3.5-5.4", "synonyms": ["APCH108-3.5-5.4"]}, {"conceptId": "C182983", "definition": "Acute Physiology and Chronic Health Evaluation II original result for APCH108-5.5-5.9.", "preferredTerm": "Acute Physiology and Chronic Health Evaluation II APCH108 Original Result - 5.5-5.9", "submissionValue": "5.5-5.9", "synonyms": ["APCH108-5.5-5.9"]}, {"conceptId": "C182982", "definition": "Acute Physiology and Chronic Health Evaluation II original result for APCH108-6-6.9.", "preferredTerm": "Acute Physiology and Chronic Health Evaluation II APCH108 Original Result - 6-6.9", "submissionValue": "6-6.9", "synonyms": ["APCH108-6-6.9"]}, {"conceptId": "C182987", "definition": "Acute Physiology and Chronic Health Evaluation II original result for APCH108-Less than 2.5.", "preferredTerm": "Acute Physiology and Chronic Health Evaluation II APCH108 Original Result - <2.5", "submissionValue": "<2.5", "synonyms": ["APCH108-<2.5"]}, {"conceptId": "C182981", "definition": "Acute Physiology and Chronic Health Evaluation II original result for APCH108-Greater than or equal to 7.", "preferredTerm": "Acute Physiology and Chronic Health Evaluation II APCH108 Original Result - >=7", "submissionValue": ">=7", "synonyms": ["APCH108->=7"]}]}, {"conceptId": "C182494", "definition": "Acute Physiology and Chronic Health Evaluation II original result for APCH109 test and test code.", "extensible": "false", "name": "Acute Physiology and Chronic Health Evaluation II Clinical Classification ORRES for APCH109 TN/TC", "preferredTerm": "CDISC Clinical Classification Acute Physiology and Chronic Health Evaluation II APCH109 Original Response Terminology", "submissionValue": "APCH109OR", "synonyms": ["Acute Physiology and Chronic Health Evaluation II Clinical Classification ORRES for APCH109 TN/TC"], "terms": [{"conceptId": "C182999", "definition": "Acute Physiology and Chronic Health Evaluation II original result for APCH109-0.6-1.4.", "preferredTerm": "Acute Physiology and Chronic Health Evaluation II APCH109 Original Result - 0.6-1.4", "submissionValue": "0.6-1.4", "synonyms": ["APCH109-0.6-1.4"]}, {"conceptId": "C182995", "definition": "Acute Physiology and Chronic Health Evaluation II original result for APCH109-1.5-1.9 and acute renal failure.", "preferredTerm": "Acute Physiology and Chronic Health Evaluation II APCH109 Original Result - 1.5-1.9 and acute renal failure", "submissionValue": "1.5-1.9 and acute renal failure", "synonyms": ["APCH109-1.5-1.9 and acute renal failure"]}, {"conceptId": "C182998", "definition": "Acute Physiology and Chronic Health Evaluation II original result for APCH109-1.5-1.9.", "preferredTerm": "Acute Physiology and Chronic Health Evaluation II APCH109 Original Result - 1.5-1.9", "submissionValue": "1.5-1.9", "synonyms": ["APCH109-1.5-1.9"]}, {"conceptId": "C182994", "definition": "Acute Physiology and Chronic Health Evaluation II original result for APCH109-2-3.4 and acute renal failure.", "preferredTerm": "Acute Physiology and Chronic Health Evaluation II APCH109 Original Result - 2-3.4 and acute renal failure", "submissionValue": "2-3.4 and acute renal failure", "synonyms": ["APCH109-2-3.4 and acute renal failure"]}, {"conceptId": "C182997", "definition": "Acute Physiology and Chronic Health Evaluation II original result for APCH109-2-3.4.", "preferredTerm": "Acute Physiology and Chronic Health Evaluation II APCH109 Original Result - 2-3.4", "submissionValue": "2-3.4", "synonyms": ["APCH109-2-3.4"]}, {"conceptId": "C183000", "definition": "Acute Physiology and Chronic Health Evaluation II original result for APCH109-Less than 0.6.", "preferredTerm": "Acute Physiology and Chronic Health Evaluation II APCH109 Original Result - <0.6", "submissionValue": "<0.6", "synonyms": ["APCH109-<0.6"]}, {"conceptId": "C182993", "definition": "Acute Physiology and Chronic Health Evaluation II original result for APCH109-Greater than or equal to 3.5 and acute renal failure.", "preferredTerm": "Acute Physiology and Chronic Health Evaluation II APCH109 Original Result - >=3.5 and acute renal failure", "submissionValue": ">=3.5 and acute renal failure", "synonyms": ["APCH109->=3.5 and acute renal failure"]}, {"conceptId": "C182996", "definition": "Acute Physiology and Chronic Health Evaluation II original result for APCH109-Greater than or equal to 3.5.", "preferredTerm": "Acute Physiology and Chronic Health Evaluation II APCH109 Original Result - >=3.5", "submissionValue": ">=3.5", "synonyms": ["APCH109->=3.5"]}]}, {"conceptId": "C182495", "definition": "Acute Physiology and Chronic Health Evaluation II original result for APCH110 test and test code.", "extensible": "false", "name": "Acute Physiology and Chronic Health Evaluation II Clinical Classification ORRES for APCH110 TN/TC", "preferredTerm": "CDISC Clinical Classification Acute Physiology and Chronic Health Evaluation II APCH110 Original Response Terminology", "submissionValue": "APCH110OR", "synonyms": ["Acute Physiology and Chronic Health Evaluation II Clinical Classification ORRES for APCH110 TN/TC"], "terms": [{"conceptId": "C183011", "definition": "Acute Physiology and Chronic Health Evaluation II original result for APCH110-20-29.9.", "preferredTerm": "Acute Physiology and Chronic Health Evaluation II APCH110 Original Result - 20-29.9", "submissionValue": "20-29.9", "synonyms": ["APCH110-20-29.9"]}, {"conceptId": "C183010", "definition": "Acute Physiology and Chronic Health Evaluation II original result for APCH110-30-45.9.", "preferredTerm": "Acute Physiology and Chronic Health Evaluation II APCH110 Original Result - 30-45.9", "submissionValue": "30-45.9", "synonyms": ["APCH110-30-45.9"]}, {"conceptId": "C183009", "definition": "Acute Physiology and Chronic Health Evaluation II original result for APCH110-46-49.9.", "preferredTerm": "Acute Physiology and Chronic Health Evaluation II APCH110 Original Result - 46-49.9", "submissionValue": "46-49.9", "synonyms": ["APCH110-46-49.9"]}, {"conceptId": "C183008", "definition": "Acute Physiology and Chronic Health Evaluation II original result for APCH110-50-59.9.", "preferredTerm": "Acute Physiology and Chronic Health Evaluation II APCH110 Original Result - 50-59.9", "submissionValue": "50-59.9", "synonyms": ["APCH110-50-59.9"]}, {"conceptId": "C183012", "definition": "Acute Physiology and Chronic Health Evaluation II original result for APCH110-Less than 20.", "preferredTerm": "Acute Physiology and Chronic Health Evaluation II APCH110 Original Result - <20", "submissionValue": "<20", "synonyms": ["APCH110-<20"]}, {"conceptId": "C183007", "definition": "Acute Physiology and Chronic Health Evaluation II original result for APCH110-Greater than or equal to 60.", "preferredTerm": "Acute Physiology and Chronic Health Evaluation II APCH110 Original Result - >=60", "submissionValue": ">=60", "synonyms": ["APCH110->=60"]}]}, {"conceptId": "C182496", "definition": "Acute Physiology and Chronic Health Evaluation II original result for APCH111 test and test code.", "extensible": "false", "name": "Acute Physiology and Chronic Health Evaluation II Clinical Classification ORRES for APCH111 TN/TC", "preferredTerm": "CDISC Clinical Classification Acute Physiology and Chronic Health Evaluation II APCH111 Original Response Terminology", "submissionValue": "APCH111OR", "synonyms": ["Acute Physiology and Chronic Health Evaluation II Clinical Classification ORRES for APCH111 TN/TC"], "terms": [{"conceptId": "C183021", "definition": "Acute Physiology and Chronic Health Evaluation II original result for APCH111-1-2.9.", "preferredTerm": "Acute Physiology and Chronic Health Evaluation II APCH111 Original Result - 1-2.9", "submissionValue": "1-2.9", "synonyms": ["APCH111-1-2.9"]}, {"conceptId": "C183019", "definition": "Acute Physiology and Chronic Health Evaluation II original result for APCH111-15-19.9.", "preferredTerm": "Acute Physiology and Chronic Health Evaluation II APCH111 Original Result - 15-19.9", "submissionValue": "15-19.9", "synonyms": ["APCH111-15-19.9"]}, {"conceptId": "C183018", "definition": "Acute Physiology and Chronic Health Evaluation II original result for APCH111-20-39.9.", "preferredTerm": "Acute Physiology and Chronic Health Evaluation II APCH111 Original Result - 20-39.9", "submissionValue": "20-39.9", "synonyms": ["APCH111-20-39.9"]}, {"conceptId": "C183020", "definition": "Acute Physiology and Chronic Health Evaluation II original result for APCH111-3-14.9.", "preferredTerm": "Acute Physiology and Chronic Health Evaluation II APCH111 Original Result - 3-14.9", "submissionValue": "3-14.9", "synonyms": ["APCH111-3-14.9"]}, {"conceptId": "C183022", "definition": "Acute Physiology and Chronic Health Evaluation II original result for APCH111-Less than 1.", "preferredTerm": "Acute Physiology and Chronic Health Evaluation II APCH111 Original Result - <1", "submissionValue": "<1", "synonyms": ["APCH111-<1"]}, {"conceptId": "C183017", "definition": "Acute Physiology and Chronic Health Evaluation II original result for APCH111-Greater than or equal to 40.", "preferredTerm": "Acute Physiology and Chronic Health Evaluation II APCH111 Original Result - >=40", "submissionValue": ">=40", "synonyms": ["APCH111->=40"]}]}, {"conceptId": "C182497", "definition": "Acute Physiology and Chronic Health Evaluation II original result for APCH114 test and test code.", "extensible": "false", "name": "Acute Physiology and Chronic Health Evaluation II Clinical Classification ORRES for APCH114 TN/TC", "preferredTerm": "CDISC Clinical Classification Acute Physiology and Chronic Health Evaluation II APCH114 Original Response Terminology", "submissionValue": "APCH114OR", "synonyms": ["Acute Physiology and Chronic Health Evaluation II Clinical Classification ORRES for APCH114 TN/TC"], "terms": [{"conceptId": "C183028", "definition": "Acute Physiology and Chronic Health Evaluation II original result for APCH114-45-54.", "preferredTerm": "Acute Physiology and Chronic Health Evaluation II APCH114 Original Result - 45-54", "submissionValue": "45-54", "synonyms": ["APCH114-45-54"]}, {"conceptId": "C183029", "definition": "Acute Physiology and Chronic Health Evaluation II original result for APCH114-55-64.", "preferredTerm": "Acute Physiology and Chronic Health Evaluation II APCH114 Original Result - 55-64", "submissionValue": "55-64", "synonyms": ["APCH114-55-64"]}, {"conceptId": "C183030", "definition": "Acute Physiology and Chronic Health Evaluation II original result for APCH114-65-74.", "preferredTerm": "Acute Physiology and Chronic Health Evaluation II APCH114 Original Result - 65-74", "submissionValue": "65-74", "synonyms": ["APCH114-65-74"]}, {"conceptId": "C183027", "definition": "Acute Physiology and Chronic Health Evaluation II original result for APCH114-Less than or equal to 44.", "preferredTerm": "Acute Physiology and Chronic Health Evaluation II APCH114 Original Result - <=44", "submissionValue": "<=44", "synonyms": ["APCH114-<=44"]}, {"conceptId": "C183031", "definition": "Acute Physiology and Chronic Health Evaluation II original result for APCH114-Greater than or equal to 75.", "preferredTerm": "Acute Physiology and Chronic Health Evaluation II APCH114 Original Result - >=75", "submissionValue": ">=75", "synonyms": ["APCH114->=75"]}]}, {"conceptId": "C182498", "definition": "Acute Physiology and Chronic Health Evaluation II original result for APCH115 test and test code.", "extensible": "false", "name": "Acute Physiology and Chronic Health Evaluation II Clinical Classification ORRES for APCH115 TN/TC", "preferredTerm": "CDISC Clinical Classification Acute Physiology and Chronic Health Evaluation II APCH115 Original Response Terminology", "submissionValue": "APCH115OR", "synonyms": ["Acute Physiology and Chronic Health Evaluation II Clinical Classification ORRES for APCH115 TN/TC"], "terms": [{"conceptId": "C183038", "definition": "Acute Physiology and Chronic Health Evaluation II original result for APCH115-for elective postoperative patients.", "preferredTerm": "Acute Physiology and Chronic Health Evaluation II APCH115 Original Result - for elective postoperative patients", "submissionValue": "for elective postoperative patients", "synonyms": ["APCH115-for elective postoperative patients"]}, {"conceptId": "C183037", "definition": "Acute Physiology and Chronic Health Evaluation II original result for APCH115-for nonoperative or emergency postoperative patients.", "preferredTerm": "Acute Physiology and Chronic Health Evaluation II APCH115 Original Result - for nonoperative or emergency postoperative patients", "submissionValue": "for nonoperative or emergency postoperative patients", "synonyms": ["APCH115-for nonoperative or emergency postoperative patients"]}]}, {"conceptId": "C182522", "definition": "Acute Physiology and Chronic Health Evaluation II standardized character result for APCH101 test and test code.", "extensible": "false", "name": "Acute Physiology and Chronic Health Evaluation II Clinical Classification STRESC for APCH101 TN/TC", "preferredTerm": "CDISC Clinical Classification Acute Physiology and Chronic Health Evaluation II APCH101 Standardized Character Response Terminology", "submissionValue": "APCH101STR", "synonyms": ["Acute Physiology and Chronic Health Evaluation II Clinical Classification STRESC for APCH101 TN/TC"], "terms": [{"conceptId": "C182894", "definition": "Acute Physiology and Chronic Health Evaluation II standardized character result for APCH101-36-38.4.", "preferredTerm": "Acute Physiology and Chronic Health Evaluation II APCH101 Standardized Character Result 0", "submissionValue": "0", "synonyms": ["APCH101-0"]}, {"conceptId": "C182893", "definition": "Acute Physiology and Chronic Health Evaluation II standardized character result for APCH101-38.5-38.9; 34-35.9.", "preferredTerm": "Acute Physiology and Chronic Health Evaluation II APCH101 Standardized Character Result 1", "submissionValue": "1", "synonyms": ["APCH101-1"]}, {"conceptId": "C182892", "definition": "Acute Physiology and Chronic Health Evaluation II standardized character result for APCH101-32-33.9.", "preferredTerm": "Acute Physiology and Chronic Health Evaluation II APCH101 Standardized Character Result 2", "submissionValue": "2", "synonyms": ["APCH101-2"]}, {"conceptId": "C182891", "definition": "Acute Physiology and Chronic Health Evaluation II standardized character result for APCH101-39-40.9; 30-31.9.", "preferredTerm": "Acute Physiology and Chronic Health Evaluation II APCH101 Standardized Character Result 3", "submissionValue": "3", "synonyms": ["APCH101-3"]}, {"conceptId": "C182890", "definition": "Acute Physiology and Chronic Health Evaluation II standardized character result for APCH101-Greater than or equal to 41; Less than or equal to 29.9.", "preferredTerm": "Acute Physiology and Chronic Health Evaluation II APCH101 Standardized Character Result 4", "submissionValue": "4", "synonyms": ["APCH101-4"]}]}, {"conceptId": "C182523", "definition": "Acute Physiology and Chronic Health Evaluation II standardized character result for APCH102 test and test code.", "extensible": "false", "name": "Acute Physiology and Chronic Health Evaluation II Clinical Classification STRESC for APCH102 TN/TC", "preferredTerm": "CDISC Clinical Classification Acute Physiology and Chronic Health Evaluation II APCH102 Standardized Character Response Terminology", "submissionValue": "APCH102STR", "synonyms": ["Acute Physiology and Chronic Health Evaluation II Clinical Classification STRESC for APCH102 TN/TC"], "terms": [{"conceptId": "C182904", "definition": "Acute Physiology and Chronic Health Evaluation II standardized character result for APCH102-70-109.", "preferredTerm": "Acute Physiology and Chronic Health Evaluation II APCH102 Standardized Character Result 0", "submissionValue": "0", "synonyms": ["APCH102-0"]}, {"conceptId": "C182903", "definition": "Acute Physiology and Chronic Health Evaluation II standardized character result for APCH102-110-129; 50-69.", "preferredTerm": "Acute Physiology and Chronic Health Evaluation II APCH102 Standardized Character Result 2", "submissionValue": "2", "synonyms": ["APCH102-2"]}, {"conceptId": "C182902", "definition": "Acute Physiology and Chronic Health Evaluation II standardized character result for APCH102-130-159.", "preferredTerm": "Acute Physiology and Chronic Health Evaluation II APCH102 Standardized Character Result 3", "submissionValue": "3", "synonyms": ["APCH102-3"]}, {"conceptId": "C182901", "definition": "Acute Physiology and Chronic Health Evaluation II standardized character result for APCH102-Greater than or equal to 160; less than or equal to 49.", "preferredTerm": "Acute Physiology and Chronic Health Evaluation II APCH102 Standardized Character Result 4", "submissionValue": "4", "synonyms": ["APCH102-4"]}]}, {"conceptId": "C182524", "definition": "Acute Physiology and Chronic Health Evaluation II standardized character result for APCH103 test and test code.", "extensible": "false", "name": "Acute Physiology and Chronic Health Evaluation II Clinical Classification STRESC for APCH103 TN/TC", "preferredTerm": "CDISC Clinical Classification Acute Physiology and Chronic Health Evaluation II APCH103 Standardized Character Response Terminology", "submissionValue": "APCH103STR", "synonyms": ["Acute Physiology and Chronic Health Evaluation II Clinical Classification STRESC for APCH103 TN/TC"], "terms": [{"conceptId": "C182915", "definition": "Acute Physiology and Chronic Health Evaluation II standardized character result for APCH103-70-109.", "preferredTerm": "Acute Physiology and Chronic Health Evaluation II APCH103 Standardized Character Result 0", "submissionValue": "0", "synonyms": ["APCH103-0"]}, {"conceptId": "C182914", "definition": "Acute Physiology and Chronic Health Evaluation II standardized character result for APCH103-110-139; 55-69.", "preferredTerm": "Acute Physiology and Chronic Health Evaluation II APCH103 Standardized Character Result 2", "submissionValue": "2", "synonyms": ["APCH103-2"]}, {"conceptId": "C182913", "definition": "Acute Physiology and Chronic Health Evaluation II standardized character result for APCH103-140-179; 40-54.", "preferredTerm": "Acute Physiology and Chronic Health Evaluation II APCH103 Standardized Character Result 3", "submissionValue": "3", "synonyms": ["APCH103-3"]}, {"conceptId": "C182912", "definition": "Acute Physiology and Chronic Health Evaluation II standardized character result for APCH103-Greater than or equal to 180; Less than or equal 39.", "preferredTerm": "Acute Physiology and Chronic Health Evaluation II APCH103 Standardized Character Result 4", "submissionValue": "4", "synonyms": ["APCH103-4"]}]}, {"conceptId": "C182525", "definition": "Acute Physiology and Chronic Health Evaluation II standardized character result for APCH104 test and test code.", "extensible": "false", "name": "Acute Physiology and Chronic Health Evaluation II Clinical Classification STRESC for APCH104 TN/TC", "preferredTerm": "CDISC Clinical Classification Acute Physiology and Chronic Health Evaluation II APCH104 Standardized Character Response Terminology", "submissionValue": "APCH104STR", "synonyms": ["Acute Physiology and Chronic Health Evaluation II Clinical Classification STRESC for APCH104 TN/TC"], "terms": [{"conceptId": "C182927", "definition": "Acute Physiology and Chronic Health Evaluation II standardized character result for APCH104-12-24.", "preferredTerm": "Acute Physiology and Chronic Health Evaluation II APCH104 Standardized Character Result 0", "submissionValue": "0", "synonyms": ["APCH104-0"]}, {"conceptId": "C182926", "definition": "Acute Physiology and Chronic Health Evaluation II standardized character result for APCH104-25-34; 10-11.", "preferredTerm": "Acute Physiology and Chronic Health Evaluation II APCH104 Standardized Character Result 1", "submissionValue": "1", "synonyms": ["APCH104-1"]}, {"conceptId": "C182925", "definition": "Acute Physiology and Chronic Health Evaluation II standardized character result for APCH104-6-9.", "preferredTerm": "Acute Physiology and Chronic Health Evaluation II APCH104 Standardized Character Result 2", "submissionValue": "2", "synonyms": ["APCH104-2"]}, {"conceptId": "C182924", "definition": "Acute Physiology and Chronic Health Evaluation II standardized character result for APCH104-35-49.", "preferredTerm": "Acute Physiology and Chronic Health Evaluation II APCH104 Standardized Character Result 3", "submissionValue": "3", "synonyms": ["APCH104-3"]}, {"conceptId": "C182923", "definition": "Acute Physiology and Chronic Health Evaluation II standardized character result for APCH104-Greater than or equal to 50; Less than or equal to 5.", "preferredTerm": "Acute Physiology and Chronic Health Evaluation II APCH104 Standardized Character Result 4", "submissionValue": "4", "synonyms": ["APCH104-4"]}]}, {"conceptId": "C182526", "definition": "Acute Physiology and Chronic Health Evaluation II standardized character result for APCH105A test and test code.", "extensible": "false", "name": "Acute Physiology and Chronic Health Evaluation II Clinical Classification STRESC for APCH105A TN/TC", "preferredTerm": "CDISC Clinical Classification Acute Physiology and Chronic Health Evaluation II APCH105A Standardized Character Response Terminology", "submissionValue": "APCH105ASTR", "synonyms": ["Acute Physiology and Chronic Health Evaluation II Clinical Classification STRESC for APCH105A TN/TC"], "terms": [{"conceptId": "C182935", "definition": "Acute Physiology and Chronic Health Evaluation II standardized character result for APCH105A-Less than 200.", "preferredTerm": "Acute Physiology and Chronic Health Evaluation II APCH105A Standardized Character Result 0", "submissionValue": "0", "synonyms": ["APCH105A-0"]}, {"conceptId": "C182934", "definition": "Acute Physiology and Chronic Health Evaluation II standardized character result for APCH105A-200-349.", "preferredTerm": "Acute Physiology and Chronic Health Evaluation II APCH105A Standardized Character Result 2", "submissionValue": "2", "synonyms": ["APCH105A-2"]}, {"conceptId": "C182933", "definition": "Acute Physiology and Chronic Health Evaluation II standardized character result for APCH105A-350-499.", "preferredTerm": "Acute Physiology and Chronic Health Evaluation II APCH105A Standardized Character Result 3", "submissionValue": "3", "synonyms": ["APCH105A-3"]}, {"conceptId": "C182932", "definition": "Acute Physiology and Chronic Health Evaluation II standardized character result for APCH105A-Greater than or equal to 500.", "preferredTerm": "Acute Physiology and Chronic Health Evaluation II APCH105A Standardized Character Result 4", "submissionValue": "4", "synonyms": ["APCH105A-4"]}]}, {"conceptId": "C182527", "definition": "Acute Physiology and Chronic Health Evaluation II standardized character result for APCH105B test and test code.", "extensible": "false", "name": "Acute Physiology and Chronic Health Evaluation II Clinical Classification STRESC for APCH105B TN/TC", "preferredTerm": "CDISC Clinical Classification Acute Physiology and Chronic Health Evaluation II APCH105B Standardized Character Response Terminology", "submissionValue": "APCH105BSTR", "synonyms": ["Acute Physiology and Chronic Health Evaluation II Clinical Classification STRESC for APCH105B TN/TC"], "terms": [{"conceptId": "C182940", "definition": "Acute Physiology and Chronic Health Evaluation II standardized character result for APCH105B-Greater than 70.", "preferredTerm": "Acute Physiology and Chronic Health Evaluation II APCH105B Standardized Character Result 0", "submissionValue": "0", "synonyms": ["APCH105B-0"]}, {"conceptId": "C182941", "definition": "Acute Physiology and Chronic Health Evaluation II standardized character result for APCH105B-61-70.", "preferredTerm": "Acute Physiology and Chronic Health Evaluation II APCH105B Standardized Character Result 1", "submissionValue": "1", "synonyms": ["APCH105B-1"]}, {"conceptId": "C182942", "definition": "Acute Physiology and Chronic Health Evaluation II standardized character result for APCH105B-55-60.", "preferredTerm": "Acute Physiology and Chronic Health Evaluation II APCH105B Standardized Character Result 3", "submissionValue": "3", "synonyms": ["APCH105B-3"]}, {"conceptId": "C182943", "definition": "Acute Physiology and Chronic Health Evaluation II standardized character result for APCH105B-Less than 55.", "preferredTerm": "Acute Physiology and Chronic Health Evaluation II APCH105B Standardized Character Result 4", "submissionValue": "4", "synonyms": ["APCH105B-4"]}]}, {"conceptId": "C182528", "definition": "Acute Physiology and Chronic Health Evaluation II standardized character result for APCH106A test and test code.", "extensible": "false", "name": "Acute Physiology and Chronic Health Evaluation II Clinical Classification STRESC for APCH106A TN/TC", "preferredTerm": "CDISC Clinical Classification Acute Physiology and Chronic Health Evaluation II APCH106A Standardized Character Response Terminology", "submissionValue": "APCH106ASTR", "synonyms": ["Acute Physiology and Chronic Health Evaluation II Clinical Classification STRESC for APCH106A TN/TC"], "terms": [{"conceptId": "C182955", "definition": "Acute Physiology and Chronic Health Evaluation II standardized character result for APCH106A-7.33-7.49.", "preferredTerm": "Acute Physiology and Chronic Health Evaluation II APCH106A Standardized Character Result 0", "submissionValue": "0", "synonyms": ["APCH106A-0"]}, {"conceptId": "C182954", "definition": "Acute Physiology and Chronic Health Evaluation II standardized character result for APCH106A-7.5-7.59.", "preferredTerm": "Acute Physiology and Chronic Health Evaluation II APCH106A Standardized Character Result 1", "submissionValue": "1", "synonyms": ["APCH106A-1"]}, {"conceptId": "C182953", "definition": "Acute Physiology and Chronic Health Evaluation II standardized character result for APCH106A-7.25-7.32.", "preferredTerm": "Acute Physiology and Chronic Health Evaluation II APCH106A Standardized Character Result 2", "submissionValue": "2", "synonyms": ["APCH106A2"]}, {"conceptId": "C182952", "definition": "Acute Physiology and Chronic Health Evaluation II standardized character result for APCH106A-7.6-7.69; 7.15-7.24.", "preferredTerm": "Acute Physiology and Chronic Health Evaluation II APCH106A Standardized Character Result 3", "submissionValue": "3", "synonyms": ["APCH106A-3"]}, {"conceptId": "C182951", "definition": "Acute Physiology and Chronic Health Evaluation II standardized character result for APCH106A-Greater than or equal to 7.7; Less than 7.15.", "preferredTerm": "Acute Physiology and Chronic Health Evaluation II APCH106A Standardized Character Result 4", "submissionValue": "4", "synonyms": ["APCH106A-4"]}]}, {"conceptId": "C182529", "definition": "Acute Physiology and Chronic Health Evaluation II standardized character result for APCH106B test and test code.", "extensible": "false", "name": "Acute Physiology and Chronic Health Evaluation II Clinical Classification STRESC for APCH106B TN/TC", "preferredTerm": "CDISC Clinical Classification Acute Physiology and Chronic Health Evaluation II APCH106B Standardized Character Response Terminology", "submissionValue": "APCH106BSTR", "synonyms": ["Acute Physiology and Chronic Health Evaluation II Clinical Classification STRESC for APCH106B TN/TC"], "terms": [{"conceptId": "C182967", "definition": "Acute Physiology and Chronic Health Evaluation II standardized character result for APCH106B-22-31.9.", "preferredTerm": "Acute Physiology and Chronic Health Evaluation II APCH106B Standardized Character Result 0", "submissionValue": "0", "synonyms": ["APCH106B-0"]}, {"conceptId": "C182966", "definition": "Acute Physiology and Chronic Health Evaluation II standardized character result for APCH106B-32-40.9.", "preferredTerm": "Acute Physiology and Chronic Health Evaluation II APCH106B Standardized Character Result 1", "submissionValue": "1", "synonyms": ["APCH106B-1"]}, {"conceptId": "C182965", "definition": "Acute Physiology and Chronic Health Evaluation II standardized character result for APCH106B-18-21.9.", "preferredTerm": "Acute Physiology and Chronic Health Evaluation II APCH106B Standardized Character Result 2", "submissionValue": "2", "synonyms": ["APCH106B-2"]}, {"conceptId": "C182964", "definition": "Acute Physiology and Chronic Health Evaluation II standardized character result for APCH106B-41-51.9; 15-17.9.", "preferredTerm": "Acute Physiology and Chronic Health Evaluation II APCH106B Standardized Character Result 3", "submissionValue": "3", "synonyms": ["APCH106B-3"]}, {"conceptId": "C182963", "definition": "Acute Physiology and Chronic Health Evaluation II standardized character result for APCH106B-Greater than or equal to 52; Less than 15.", "preferredTerm": "Acute Physiology and Chronic Health Evaluation II APCH106B Standardized Character Result 4", "submissionValue": "4", "synonyms": ["APCH106B-4"]}]}, {"conceptId": "C182530", "definition": "Acute Physiology and Chronic Health Evaluation II standardized character result for APCH107 test and test code.", "extensible": "false", "name": "Acute Physiology and Chronic Health Evaluation II Clinical Classification STRESC for APCH107 TN/TC", "preferredTerm": "CDISC Clinical Classification Acute Physiology and Chronic Health Evaluation II APCH107 Standardized Character Response Terminology", "submissionValue": "APCH107STR", "synonyms": ["Acute Physiology and Chronic Health Evaluation II Clinical Classification STRESC for APCH107 TN/TC"], "terms": [{"conceptId": "C182980", "definition": "Acute Physiology and Chronic Health Evaluation II standardized character result for APCH107-130-149.", "preferredTerm": "Acute Physiology and Chronic Health Evaluation II APCH107 Standardized Character Result 0", "submissionValue": "0", "synonyms": ["APCH107-0"]}, {"conceptId": "C182979", "definition": "Acute Physiology and Chronic Health Evaluation II standardized character result for APCH107-150-154.", "preferredTerm": "Acute Physiology and Chronic Health Evaluation II APCH107 Standardized Character Result 1", "submissionValue": "1", "synonyms": ["APCH107-1"]}, {"conceptId": "C182978", "definition": "Acute Physiology and Chronic Health Evaluation II standardized character result for APCH107-155-159; 120-129.", "preferredTerm": "Acute Physiology and Chronic Health Evaluation II APCH107 Standardized Character Result 2", "submissionValue": "2", "synonyms": ["APCH107-2"]}, {"conceptId": "C182977", "definition": "Acute Physiology and Chronic Health Evaluation II standardized character result for APCH107-160-179; 111-119.", "preferredTerm": "Acute Physiology and Chronic Health Evaluation II APCH107 Standardized Character Result 3", "submissionValue": "3", "synonyms": ["APCH107-3"]}, {"conceptId": "C182976", "definition": "Acute Physiology and Chronic Health Evaluation II standardized character result for APCH107-Greater than or equal to 180; Less than or equal to 110.", "preferredTerm": "Acute Physiology and Chronic Health Evaluation II APCH107 Standardized Character Result 4", "submissionValue": "4", "synonyms": ["APCH107-4"]}]}, {"conceptId": "C182531", "definition": "Acute Physiology and Chronic Health Evaluation II standardized character result for APCH108 test and test code.", "extensible": "false", "name": "Acute Physiology and Chronic Health Evaluation II Clinical Classification STRESC for APCH108 TN/TC", "preferredTerm": "CDISC Clinical Classification Acute Physiology and Chronic Health Evaluation II APCH108 Standardized Character Response Terminology", "submissionValue": "APCH108STR", "synonyms": ["Acute Physiology and Chronic Health Evaluation II Clinical Classification STRESC for APCH108 TN/TC"], "terms": [{"conceptId": "C182992", "definition": "Acute Physiology and Chronic Health Evaluation II standardized character result for APCH108-3.5-5.4.", "preferredTerm": "Acute Physiology and Chronic Health Evaluation II APCH108 Standardized Character Result 0", "submissionValue": "0", "synonyms": ["APCH108-0"]}, {"conceptId": "C182991", "definition": "Acute Physiology and Chronic Health Evaluation II standardized character result for APCH108-5.5-5.9; 3-3.4.", "preferredTerm": "Acute Physiology and Chronic Health Evaluation II APCH108 Standardized Character Result 1", "submissionValue": "1", "synonyms": ["APCH108-1"]}, {"conceptId": "C182990", "definition": "Acute Physiology and Chronic Health Evaluation II standardized character result for APCH108-2.5-2.9.", "preferredTerm": "Acute Physiology and Chronic Health Evaluation II APCH108 Standardized Character Result 2", "submissionValue": "2", "synonyms": ["APCH108-2"]}, {"conceptId": "C182989", "definition": "Acute Physiology and Chronic Health Evaluation II standardized character result for APCH108-6-6.9.", "preferredTerm": "Acute Physiology and Chronic Health Evaluation II APCH108 Standardized Character Result 3", "submissionValue": "3", "synonyms": ["APCH108-3"]}, {"conceptId": "C182988", "definition": "Acute Physiology and Chronic Health Evaluation II standardized character result for APCH108-Greater than or equal to 7; Less than 2.5.", "preferredTerm": "Acute Physiology and Chronic Health Evaluation II APCH108 Standardized Character Result 4", "submissionValue": "4", "synonyms": ["APCH108-4"]}]}, {"conceptId": "C182532", "definition": "Acute Physiology and Chronic Health Evaluation II standardized character result for APCH109 test and test code.", "extensible": "false", "name": "Acute Physiology and Chronic Health Evaluation II Clinical Classification STRESC for APCH109 TN/TC", "preferredTerm": "CDISC Clinical Classification Acute Physiology and Chronic Health Evaluation II APCH109 Standardized Character Response Terminology", "submissionValue": "APCH109STR", "synonyms": ["Acute Physiology and Chronic Health Evaluation II Clinical Classification STRESC for APCH109 TN/TC"], "terms": [{"conceptId": "C183006", "definition": "Acute Physiology and Chronic Health Evaluation II standardized character result for APCH109-0.6-1.4.", "preferredTerm": "Acute Physiology and Chronic Health Evaluation II APCH109 Standardized Character Result 0", "submissionValue": "0", "synonyms": ["APCH109-0"]}, {"conceptId": "C183005", "definition": "Acute Physiology and Chronic Health Evaluation II standardized character result for APCH109-1.5-1.9; Less than 0.6.", "preferredTerm": "Acute Physiology and Chronic Health Evaluation II APCH109 Standardized Character Result 2", "submissionValue": "2", "synonyms": ["APCH109-2"]}, {"conceptId": "C183004", "definition": "Acute Physiology and Chronic Health Evaluation II standardized character result for APCH109-2-3.4.", "preferredTerm": "Acute Physiology and Chronic Health Evaluation II APCH109 Standardized Character Result 3", "submissionValue": "3", "synonyms": ["APCH109-3"]}, {"conceptId": "C183003", "definition": "Acute Physiology and Chronic Health Evaluation II standardized character result for APCH109-1.5-1.9 and acute renal failure; Greater than or equal to 3.5.", "preferredTerm": "Acute Physiology and Chronic Health Evaluation II APCH109 Standardized Character Result 4", "submissionValue": "4", "synonyms": ["APCH109-4"]}, {"conceptId": "C183002", "definition": "Acute Physiology and Chronic Health Evaluation II standardized character result for APCH109-2-3.4 and acute renal failure.", "preferredTerm": "Acute Physiology and Chronic Health Evaluation II APCH109 Standardized Character Result 6", "submissionValue": "6", "synonyms": ["APCH109-6"]}, {"conceptId": "C183001", "definition": "Acute Physiology and Chronic Health Evaluation II standardized character result for APCH109-Greater than or equal to 3.5 and acute renal failure.", "preferredTerm": "Acute Physiology and Chronic Health Evaluation II APCH109 Standardized Character Result 8", "submissionValue": "8", "synonyms": ["APCH109-8"]}]}, {"conceptId": "C182533", "definition": "Acute Physiology and Chronic Health Evaluation II standardized character result for APCH110 test and test code.", "extensible": "false", "name": "Acute Physiology and Chronic Health Evaluation II Clinical Classification STRESC for APCH110 TN/TC", "preferredTerm": "CDISC Clinical Classification Acute Physiology and Chronic Health Evaluation II APCH110 Standardized Character Response Terminology", "submissionValue": "APCH110STR", "synonyms": ["Acute Physiology and Chronic Health Evaluation II Clinical Classification STRESC for APCH110 TN/TC"], "terms": [{"conceptId": "C183016", "definition": "Acute Physiology and Chronic Health Evaluation II standardized character result for APCH110-30-45.9.", "preferredTerm": "Acute Physiology and Chronic Health Evaluation II APCH110 Standardized Character Result 0", "submissionValue": "0", "synonyms": ["APCH110-0"]}, {"conceptId": "C183015", "definition": "Acute Physiology and Chronic Health Evaluation II standardized character result for APCH110-46-49.9.", "preferredTerm": "Acute Physiology and Chronic Health Evaluation II APCH110 Standardized Character Result 1", "submissionValue": "1", "synonyms": ["APCH110-1"]}, {"conceptId": "C183014", "definition": "Acute Physiology and Chronic Health Evaluation II standardized character result for APCH110-50-59.9; 20-29.9.", "preferredTerm": "Acute Physiology and Chronic Health Evaluation II APCH110 Standardized Character Result 2", "submissionValue": "2", "synonyms": ["APCH110-2"]}, {"conceptId": "C183013", "definition": "Acute Physiology and Chronic Health Evaluation II standardized character result for APCH110-Greater than or equal to 60; Less than 20.", "preferredTerm": "Acute Physiology and Chronic Health Evaluation II APCH110 Standardized Character Result 4", "submissionValue": "4", "synonyms": ["APCH110-4"]}]}, {"conceptId": "C182534", "definition": "Acute Physiology and Chronic Health Evaluation II standardized character result for APCH111 test and test code.", "extensible": "false", "name": "Acute Physiology and Chronic Health Evaluation II Clinical Classification STRESC for APCH111 TN/TC", "preferredTerm": "CDISC Clinical Classification Acute Physiology and Chronic Health Evaluation II APCH111 Standardized Character Response Terminology", "submissionValue": "APCH111STR", "synonyms": ["Acute Physiology and Chronic Health Evaluation II Clinical Classification STRESC for APCH111 TN/TC"], "terms": [{"conceptId": "C183026", "definition": "Acute Physiology and Chronic Health Evaluation II standardized character result for APCH111-3-14.9.", "preferredTerm": "Acute Physiology and Chronic Health Evaluation II APCH111 Standardized Character Result 0", "submissionValue": "0", "synonyms": ["APCH111-0"]}, {"conceptId": "C183025", "definition": "Acute Physiology and Chronic Health Evaluation II standardized character result for APCH111-15-19.9.", "preferredTerm": "Acute Physiology and Chronic Health Evaluation II APCH111 Standardized Character Result 1", "submissionValue": "1", "synonyms": ["APCH111-1"]}, {"conceptId": "C183024", "definition": "Acute Physiology and Chronic Health Evaluation II standardized character result for APCH111-20-39.9; 1-2.9.", "preferredTerm": "Acute Physiology and Chronic Health Evaluation II APCH111 Standardized Character Result 2", "submissionValue": "2", "synonyms": ["APCH111-2"]}, {"conceptId": "C183023", "definition": "Acute Physiology and Chronic Health Evaluation II standardized character result for APCH111-Greater than or equal to 40; Less than 1.", "preferredTerm": "Acute Physiology and Chronic Health Evaluation II APCH111 Standardized Character Result 4", "submissionValue": "4", "synonyms": ["APCH111-4"]}]}, {"conceptId": "C182535", "definition": "Acute Physiology and Chronic Health Evaluation II standardized character result for APCH114 test and test code.", "extensible": "false", "name": "Acute Physiology and Chronic Health Evaluation II Clinical Classification STRESC for APCH114 TN/TC", "preferredTerm": "CDISC Clinical Classification Acute Physiology and Chronic Health Evaluation II APCH114 Standardized Character Response Terminology", "submissionValue": "APCH114STR", "synonyms": ["Acute Physiology and Chronic Health Evaluation II Clinical Classification STRESC for APCH114 TN/TC"], "terms": [{"conceptId": "C183032", "definition": "Acute Physiology and Chronic Health Evaluation II standardized character result for APCH114-Less than or equal to 44.", "preferredTerm": "Acute Physiology and Chronic Health Evaluation II APCH114 Standardized Character Result 0", "submissionValue": "0", "synonyms": ["APCH114-0"]}, {"conceptId": "C183033", "definition": "Acute Physiology and Chronic Health Evaluation II standardized character result for APCH114-45-54.", "preferredTerm": "Acute Physiology and Chronic Health Evaluation II APCH114 Standardized Character Result 2", "submissionValue": "2", "synonyms": ["APCH114-2"]}, {"conceptId": "C183034", "definition": "Acute Physiology and Chronic Health Evaluation II standardized character result for APCH114-55-64.", "preferredTerm": "Acute Physiology and Chronic Health Evaluation II APCH114 Standardized Character Result 3", "submissionValue": "3", "synonyms": ["APCH114-3"]}, {"conceptId": "C183035", "definition": "Acute Physiology and Chronic Health Evaluation II standardized character result for APCH114-65-74.", "preferredTerm": "Acute Physiology and Chronic Health Evaluation II APCH114 Standardized Character Result 5", "submissionValue": "5", "synonyms": ["APCH114-5"]}, {"conceptId": "C183036", "definition": "Acute Physiology and Chronic Health Evaluation II standardized character result for APCH114-Greater than or equal to 75.", "preferredTerm": "Acute Physiology and Chronic Health Evaluation II APCH114 Standardized Character Result 6", "submissionValue": "6", "synonyms": ["APCH114-6"]}]}, {"conceptId": "C182536", "definition": "Acute Physiology and Chronic Health Evaluation II standardized character result for APCH115 test and test code.", "extensible": "false", "name": "Acute Physiology and Chronic Health Evaluation II Clinical Classification STRESC for APCH115 TN/TC", "preferredTerm": "CDISC Clinical Classification Acute Physiology and Chronic Health Evaluation II APCH115 Standardized Character Response Terminology", "submissionValue": "APCH115STR", "synonyms": ["Acute Physiology and Chronic Health Evaluation II Clinical Classification STRESC for APCH115 TN/TC"], "terms": [{"conceptId": "C183040", "definition": "Acute Physiology and Chronic Health Evaluation II standardized character result for APCH115-for elective postoperative patients.", "preferredTerm": "Acute Physiology and Chronic Health Evaluation II APCH115 Standardized Character Result 2", "submissionValue": "2", "synonyms": ["APCH115-2"]}, {"conceptId": "C183039", "definition": "Acute Physiology and Chronic Health Evaluation II standardized character result for APCH115-for nonoperative or emergency postoperative patients.", "preferredTerm": "Acute Physiology and Chronic Health Evaluation II APCH115 Standardized Character Result 5", "submissionValue": "5", "synonyms": ["APCH115-5"]}]}, {"conceptId": "C120985", "definition": "Acute Physiology and Chronic Health Evaluation II test code.", "extensible": "false", "name": "Acute Physiology and Chronic Health Evaluation II Clinical Classification Test Code", "preferredTerm": "CDISC Clinical Classification APACHE II Test Code Terminology", "submissionValue": "APCH1TC", "synonyms": ["Acute Physiology and Chronic Health Evaluation II Clinical Classification Test Code"], "terms": [{"conceptId": "C121096", "definition": "Acute Physiology and Chronic Health Evaluation II - Temperature - rectal (degree C).", "preferredTerm": "APACHE II - Temperature, Rectal", "submissionValue": "APCH101", "synonyms": ["APCH1-Temperature - Rectal"]}, {"conceptId": "C121097", "definition": "Acute Physiology and Chronic Health Evaluation II - Mean arterial pressure - mmHg.", "preferredTerm": "APACHE II - Mean Arterial Pressure", "submissionValue": "APCH102", "synonyms": ["APCH1-Mean Arterial Pressure"]}, {"conceptId": "C121098", "definition": "Acute Physiology and Chronic Health Evaluation II - Heart rate (ventricular response).", "preferredTerm": "APACHE II - Heart Rate", "submissionValue": "APCH103", "synonyms": ["APCH1-Heart Rate"]}, {"conceptId": "C121099", "definition": "Acute Physiology and Chronic Health Evaluation II - Respiratory rate (non-ventilated or ventilated).", "preferredTerm": "APACHE II - Respiratory Rate", "submissionValue": "APCH104", "synonyms": ["APCH1-Respiratory Rate"]}, {"conceptId": "C121100", "definition": "Acute Physiology and Chronic Health Evaluation II - Oxygenation (mmHg): FIO2 greater than or equal to 0.5 record A-aDO2.", "preferredTerm": "APACHE II - Oxygenation, A-aDO2", "submissionValue": "APCH105A", "synonyms": ["APCH1-Oxygenation: A-aDO2"]}, {"conceptId": "C121101", "definition": "Acute Physiology and Chronic Health Evaluation II - Oxygenation (mmHg): FIO2 less than 0.5 record only PaO2.", "preferredTerm": "APACHE II - Oxygenation, PaO2", "submissionValue": "APCH105B", "synonyms": ["APCH1-Oxygenation: PaO2"]}, {"conceptId": "C121102", "definition": "Acute Physiology and Chronic Health Evaluation II - Arterial pH (preferred).", "preferredTerm": "APACHE II - Arterial pH", "submissionValue": "APCH106A", "synonyms": ["APCH1-Arterial pH"]}, {"conceptId": "C121103", "definition": "Acute Physiology and Chronic Health Evaluation II - Serum HCO3 (venous mMol/L) (Not preferred, use if no ABGs).", "preferredTerm": "APACHE II - Serum HCO3", "submissionValue": "APCH106B", "synonyms": ["APCH1-Serum HCO3"]}, {"conceptId": "C121104", "definition": "Acute Physiology and Chronic Health Evaluation II - Serum sodium (mMol/L).", "preferredTerm": "APACHE II - Serum Sodium", "submissionValue": "APCH107", "synonyms": ["APCH1-Serum Sodium"]}, {"conceptId": "C121105", "definition": "Acute Physiology and Chronic Health Evaluation II - Serum potassium (mMol/L).", "preferredTerm": "APACHE II - Serum Potassium", "submissionValue": "APCH108", "synonyms": ["APCH1-Serum Potassium"]}, {"conceptId": "C121106", "definition": "Acute Physiology and Chronic Health Evaluation II - Serum creatinine (mg/100 mL) (double point score for acute renal failure).", "preferredTerm": "APACHE II - Serum Creatinine", "submissionValue": "APCH109", "synonyms": ["APCH1-Serum Creatinine"]}, {"conceptId": "C121107", "definition": "Acute Physiology and Chronic Health Evaluation II - Hematocrit (%).", "preferredTerm": "APACHE II - Hematocrit", "submissionValue": "APCH110", "synonyms": ["APCH1-Hematocrit"]}, {"conceptId": "C121108", "definition": "Acute Physiology and Chronic Health Evaluation II - White blood count (total/mm3) (in 1,000s).", "preferredTerm": "APACHE II - White Blood Count", "submissionValue": "APCH111", "synonyms": ["APCH1-White Blood Count"]}, {"conceptId": "C121109", "definition": "Acute Physiology and Chronic Health Evaluation II - Glasgow coma score: Score equals 15 minus actual GCS.", "preferredTerm": "APACHE II - 15 Minus Glasgow Coma Score", "submissionValue": "APCH112", "synonyms": ["APCH1-15 Minus Glasgow Coma Score"]}, {"conceptId": "C121110", "definition": "Acute Physiology and Chronic Health Evaluation II - A: Total acute physiology score.", "preferredTerm": "APACHE II - A, Total Acute Physiology Score", "submissionValue": "APCH113", "synonyms": ["APCH1-A: Total Acute Physiology Score"]}, {"conceptId": "C121111", "definition": "Acute Physiology and Chronic Health Evaluation II - B: Age points (years).", "preferredTerm": "APACHE II - B, Age Points", "submissionValue": "APCH114", "synonyms": ["APCH1-B: Age Points"]}, {"conceptId": "C121112", "definition": "Acute Physiology and Chronic Health Evaluation II - C: Chronic health points.", "preferredTerm": "APACHE II - C, Chronic Health Points", "submissionValue": "APCH115", "synonyms": ["APCH1-C: Chronic Health Points"]}, {"conceptId": "C121113", "definition": "Acute Physiology and Chronic Health Evaluation II - Total APACHE II score.", "preferredTerm": "APACHE II - Total APACHE II Score", "submissionValue": "APCH116", "synonyms": ["APCH1-Total APACHE II Score"]}]}, {"conceptId": "C120984", "definition": "Acute Physiology and Chronic Health Evaluation II test name.", "extensible": "false", "name": "Acute Physiology and Chronic Health Evaluation II Clinical Classification Test Name", "preferredTerm": "CDISC Clinical Classification APACHE II Test Name Terminology", "submissionValue": "APCH1TN", "synonyms": ["Acute Physiology and Chronic Health Evaluation II Clinical Classification Test Name"], "terms": [{"conceptId": "C121109", "definition": "Acute Physiology and Chronic Health Evaluation II - Glasgow coma score: Score equals 15 minus actual GCS.", "preferredTerm": "APACHE II - 15 Minus Glasgow Coma Score", "submissionValue": "APCH1-15 Minus Glasgow Coma Score", "synonyms": ["APCH1-15 Minus Glasgow Coma Score"]}, {"conceptId": "C121110", "definition": "Acute Physiology and Chronic Health Evaluation II - A: Total acute physiology score.", "preferredTerm": "APACHE II - A, Total Acute Physiology Score", "submissionValue": "APCH1-A: Total Acute Physiology Score", "synonyms": ["APCH1-A: Total Acute Physiology Score"]}, {"conceptId": "C121102", "definition": "Acute Physiology and Chronic Health Evaluation II - Arterial pH (preferred).", "preferredTerm": "APACHE II - Arterial pH", "submissionValue": "APCH1-Arterial pH", "synonyms": ["APCH1-Arterial pH"]}, {"conceptId": "C121111", "definition": "Acute Physiology and Chronic Health Evaluation II - B: Age points (years).", "preferredTerm": "APACHE II - B, Age Points", "submissionValue": "APCH1-B: Age Points", "synonyms": ["APCH1-B: Age Points"]}, {"conceptId": "C121112", "definition": "Acute Physiology and Chronic Health Evaluation II - C: Chronic health points.", "preferredTerm": "APACHE II - C, Chronic Health Points", "submissionValue": "APCH1-C: Chronic Health Points", "synonyms": ["APCH1-C: Chronic Health Points"]}, {"conceptId": "C121098", "definition": "Acute Physiology and Chronic Health Evaluation II - Heart rate (ventricular response).", "preferredTerm": "APACHE II - Heart Rate", "submissionValue": "APCH1-Heart Rate", "synonyms": ["APCH1-Heart Rate"]}, {"conceptId": "C121107", "definition": "Acute Physiology and Chronic Health Evaluation II - Hematocrit (%).", "preferredTerm": "APACHE II - Hematocrit", "submissionValue": "APCH1-Hematocrit", "synonyms": ["APCH1-Hematocrit"]}, {"conceptId": "C121097", "definition": "Acute Physiology and Chronic Health Evaluation II - Mean arterial pressure - mmHg.", "preferredTerm": "APACHE II - Mean Arterial Pressure", "submissionValue": "APCH1-Mean Arterial Pressure", "synonyms": ["APCH1-Mean Arterial Pressure"]}, {"conceptId": "C121100", "definition": "Acute Physiology and Chronic Health Evaluation II - Oxygenation (mmHg): FIO2 greater than or equal to 0.5 record A-aDO2.", "preferredTerm": "APACHE II - Oxygenation, A-aDO2", "submissionValue": "APCH1-Oxygenation: A-aDO2", "synonyms": ["APCH1-Oxygenation: A-aDO2"]}, {"conceptId": "C121101", "definition": "Acute Physiology and Chronic Health Evaluation II - Oxygenation (mmHg): FIO2 less than 0.5 record only PaO2.", "preferredTerm": "APACHE II - Oxygenation, PaO2", "submissionValue": "APCH1-Oxygenation: PaO2", "synonyms": ["APCH1-Oxygenation: PaO2"]}, {"conceptId": "C121099", "definition": "Acute Physiology and Chronic Health Evaluation II - Respiratory rate (non-ventilated or ventilated).", "preferredTerm": "APACHE II - Respiratory Rate", "submissionValue": "APCH1-Respiratory Rate", "synonyms": ["APCH1-Respiratory Rate"]}, {"conceptId": "C121106", "definition": "Acute Physiology and Chronic Health Evaluation II - Serum creatinine (mg/100 mL) (double point score for acute renal failure).", "preferredTerm": "APACHE II - Serum Creatinine", "submissionValue": "APCH1-Serum Creatinine", "synonyms": ["APCH1-Serum Creatinine"]}, {"conceptId": "C121103", "definition": "Acute Physiology and Chronic Health Evaluation II - Serum HCO3 (venous mMol/L) (Not preferred, use if no ABGs).", "preferredTerm": "APACHE II - Serum HCO3", "submissionValue": "APCH1-Serum HCO3", "synonyms": ["APCH1-Serum HCO3"]}, {"conceptId": "C121105", "definition": "Acute Physiology and Chronic Health Evaluation II - Serum potassium (mMol/L).", "preferredTerm": "APACHE II - Serum Potassium", "submissionValue": "APCH1-Serum Potassium", "synonyms": ["APCH1-Serum Potassium"]}, {"conceptId": "C121104", "definition": "Acute Physiology and Chronic Health Evaluation II - Serum sodium (mMol/L).", "preferredTerm": "APACHE II - Serum Sodium", "submissionValue": "APCH1-Serum Sodium", "synonyms": ["APCH1-Serum Sodium"]}, {"conceptId": "C121096", "definition": "Acute Physiology and Chronic Health Evaluation II - Temperature - rectal (degree C).", "preferredTerm": "APACHE II - Temperature, Rectal", "submissionValue": "APCH1-Temperature - Rectal", "synonyms": ["APCH1-Temperature - Rectal"]}, {"conceptId": "C121113", "definition": "Acute Physiology and Chronic Health Evaluation II - Total APACHE II score.", "preferredTerm": "APACHE II - Total APACHE II Score", "submissionValue": "APCH1-Total APACHE II Score", "synonyms": ["APCH1-Total APACHE II Score"]}, {"conceptId": "C121108", "definition": "Acute Physiology and Chronic Health Evaluation II - White blood count (total/mm3) (in 1,000s).", "preferredTerm": "APACHE II - White Blood Count", "submissionValue": "APCH1-White Blood Count", "synonyms": ["APCH1-White Blood Count"]}]}, {"conceptId": "C132311", "definition": "Terminology relevant to the product administration technique used.", "extensible": "true", "name": "Administration Technique Response", "preferredTerm": "CDISC SDTM Administration Technique Response Terminology", "submissionValue": "ADTNQRS", "synonyms": ["Administration Technique Response"], "terms": [{"conceptId": "C85996", "definition": "A multiple puncture tuberculin skin test in which a Heaf gun (device containing 6 needles arranged in a circular pattern) is dipped into tuberculin purified protein derivative and pushed into the skin of the flexor surface of the left forearm. (NCI)", "preferredTerm": "Heaf Tuberculin Skin Test", "submissionValue": "HEAF"}, {"conceptId": "C85997", "definition": "A single puncture tuberculin skin test in which a standard dose of 5 Tuberculin units of purified protein derivative is injected under the skin of the inner surface of the forearm.", "preferredTerm": "Mantoux Tuberculin Skin Test", "submissionValue": "MANTOUX"}, {"conceptId": "C85998", "definition": "A multiple puncture tuberculin skin test in which tuberculin antigen (either purified protein derivative or old) is pushed into the skin via a device containing 4-6 needles that are coated in tuberculin antigen. (NCI)", "preferredTerm": "Tine Tuberculin Skin Test", "submissionValue": "TINE"}]}, {"conceptId": "C101807", "definition": "ADNI AVLT test code.", "extensible": "false", "name": "ADNI Auditory Verbal Learning Functional Test Test Code", "preferredTerm": "CDISC Functional Test ADNI AVLT Test Code Terminology", "submissionValue": "AVL01TC", "synonyms": ["ADNI Auditory Verbal Learning Functional Test Test Code"], "terms": [{"conceptId": "C101896", "definition": "Auditory Verbal Learning Test Version A - List A, Recall 1, Word 1.", "preferredTerm": "ADNI AVLT - List A Recall 1 Word 1", "submissionValue": "AVL01001", "synonyms": ["AVL01-List A Recall 1 Word 1"]}, {"conceptId": "C101897", "definition": "Auditory Verbal Learning Test Version A - List A, Recall 1, Word 2.", "preferredTerm": "ADNI AVLT - List A Recall 1 Word 2", "submissionValue": "AVL01002", "synonyms": ["AVL01-List A Recall 1 Word 2"]}, {"conceptId": "C101898", "definition": "Auditory Verbal Learning Test Version A - List A, Recall 1, Word 3.", "preferredTerm": "ADNI AVLT - List A Recall 1 Word 3", "submissionValue": "AVL01003", "synonyms": ["AVL01-List A Recall 1 Word 3"]}, {"conceptId": "C101899", "definition": "Auditory Verbal Learning Test Version A - List A, Recall 1, Word 4.", "preferredTerm": "ADNI AVLT - List A Recall 1 Word 4", "submissionValue": "AVL01004", "synonyms": ["AVL01-List A Recall 1 Word 4"]}, {"conceptId": "C101900", "definition": "Auditory Verbal Learning Test Version A - List A, Recall 1, Word 5.", "preferredTerm": "ADNI AVLT - List A Recall 1 Word 5", "submissionValue": "AVL01005", "synonyms": ["AVL01-List A Recall 1 Word 5"]}, {"conceptId": "C101901", "definition": "Auditory Verbal Learning Test Version A - List A, Recall 1, Word 6.", "preferredTerm": "ADNI AVLT - List A Recall 1 Word 6", "submissionValue": "AVL01006", "synonyms": ["AVL01-List A Recall 1 Word 6"]}, {"conceptId": "C101902", "definition": "Auditory Verbal Learning Test Version A - List A, Recall 1, Word 7.", "preferredTerm": "ADNI AVLT - List A Recall 1 Word 7", "submissionValue": "AVL01007", "synonyms": ["AVL01-List A Recall 1 Word 7"]}, {"conceptId": "C101903", "definition": "Auditory Verbal Learning Test Version A - List A, Recall 1, Word 8.", "preferredTerm": "ADNI AVLT - List A Recall 1 Word 8", "submissionValue": "AVL01008", "synonyms": ["AVL01-List A Recall 1 Word 8"]}, {"conceptId": "C101904", "definition": "Auditory Verbal Learning Test Version A - List A, Recall 1, Word 9.", "preferredTerm": "ADNI AVLT - List A Recall 1 Word 9", "submissionValue": "AVL01009", "synonyms": ["AVL01-List A Recall 1 Word 9"]}, {"conceptId": "C101905", "definition": "Auditory Verbal Learning Test Version A - List A, Recall 1, Word 10.", "preferredTerm": "ADNI AVLT - List A Recall 1 Word 10", "submissionValue": "AVL01010", "synonyms": ["AVL01-List A Recall 1 Word 10"]}, {"conceptId": "C101906", "definition": "Auditory Verbal Learning Test Version A - List A, Recall 1, Word 11.", "preferredTerm": "ADNI AVLT - List A Recall 1 Word 11", "submissionValue": "AVL01011", "synonyms": ["AVL01-List A Recall 1 Word 11"]}, {"conceptId": "C101907", "definition": "Auditory Verbal Learning Test Version A - List A, Recall 1, Word 12.", "preferredTerm": "ADNI AVLT - List A Recall 1 Word 12", "submissionValue": "AVL01012", "synonyms": ["AVL01-List A Recall 1 Word 12"]}, {"conceptId": "C101908", "definition": "Auditory Verbal Learning Test Version A - List A, Recall 1, Word 13.", "preferredTerm": "ADNI AVLT - List A Recall 1 Word 13", "submissionValue": "AVL01013", "synonyms": ["AVL01-List A Recall 1 Word 13"]}, {"conceptId": "C101909", "definition": "Auditory Verbal Learning Test Version A - List A, Recall 1, Word 14.", "preferredTerm": "ADNI AVLT - List A Recall 1 Word 14", "submissionValue": "AVL01014", "synonyms": ["AVL01-List A Recall 1 Word 14"]}, {"conceptId": "C101910", "definition": "Auditory Verbal Learning Test Version A - List A, Recall 1, Word 15.", "preferredTerm": "ADNI AVLT - List A Recall 1 Word 15", "submissionValue": "AVL01015", "synonyms": ["AVL01-List A Recall 1 Word 15"]}, {"conceptId": "C101911", "definition": "Auditory Verbal Learning Test Version A - The number of words recalled from List A, first attempt.", "preferredTerm": "ADNI AVLT - List A Recall 1 Total", "submissionValue": "AVL01016", "synonyms": ["AVL01-List A Recall 1 Total"]}, {"conceptId": "C101912", "definition": "Auditory Verbal Learning Test Version A - The number of intrusions while recalling List A, first attempt.", "preferredTerm": "ADNI AVLT - List A Intrusions 1", "submissionValue": "AVL01017", "synonyms": ["AVL01-List A Intrusions 1"]}, {"conceptId": "C101913", "definition": "Auditory Verbal Learning Test Version A - List A, Recall 2, Word 1.", "preferredTerm": "ADNI AVLT - List A Recall 2 Word 1", "submissionValue": "AVL01018", "synonyms": ["AVL01-List A Recall 2 Word 1"]}, {"conceptId": "C101914", "definition": "Auditory Verbal Learning Test Version A - List A, Recall 2, Word 2.", "preferredTerm": "ADNI AVLT - List A Recall 2 Word 2", "submissionValue": "AVL01019", "synonyms": ["AVL01-List A Recall 2 Word 2"]}, {"conceptId": "C101915", "definition": "Auditory Verbal Learning Test Version A - List A, Recall 2, Word 3.", "preferredTerm": "ADNI AVLT - List A Recall 2 Word 3", "submissionValue": "AVL01020", "synonyms": ["AVL01-List A Recall 2 Word 3"]}, {"conceptId": "C101916", "definition": "Auditory Verbal Learning Test Version A - List A, Recall 2, Word 4.", "preferredTerm": "ADNI AVLT - List A Recall 2 Word 4", "submissionValue": "AVL01021", "synonyms": ["AVL01-List A Recall 2 Word 4"]}, {"conceptId": "C101917", "definition": "Auditory Verbal Learning Test Version A - List A, Recall 2, Word 5.", "preferredTerm": "ADNI AVLT - List A Recall 2 Word 5", "submissionValue": "AVL01022", "synonyms": ["AVL01-List A Recall 2 Word 5"]}, {"conceptId": "C101918", "definition": "Auditory Verbal Learning Test Version A - List A, Recall 2, Word 6.", "preferredTerm": "ADNI AVLT - List A Recall 2 Word 6", "submissionValue": "AVL01023", "synonyms": ["AVL01-List A Recall 2 Word 6"]}, {"conceptId": "C101919", "definition": "Auditory Verbal Learning Test Version A - List A, Recall 2, Word 7.", "preferredTerm": "ADNI AVLT - List A Recall 2 Word 7", "submissionValue": "AVL01024", "synonyms": ["AVL01-List A Recall 2 Word 7"]}, {"conceptId": "C101920", "definition": "Auditory Verbal Learning Test Version A - List A, Recall 2, Word 8.", "preferredTerm": "ADNI AVLT - List A Recall 2 Word 8", "submissionValue": "AVL01025", "synonyms": ["AVL01-List A Recall 2 Word 8"]}, {"conceptId": "C101921", "definition": "Auditory Verbal Learning Test Version A - List A, Recall 2, Word 9.", "preferredTerm": "ADNI AVLT - List A Recall 2 Word 9", "submissionValue": "AVL01026", "synonyms": ["AVL01-List A Recall 2 Word 9"]}, {"conceptId": "C101922", "definition": "Auditory Verbal Learning Test Version A - List A, Recall 2, Word 10.", "preferredTerm": "ADNI AVLT - List A Recall 2 Word 10", "submissionValue": "AVL01027", "synonyms": ["AVL01-List A Recall 2 Word 10"]}, {"conceptId": "C101923", "definition": "Auditory Verbal Learning Test Version A - List A, Recall 2, Word 11.", "preferredTerm": "ADNI AVLT - List A Recall 2 Word 11", "submissionValue": "AVL01028", "synonyms": ["AVL01-List A Recall 2 Word 11"]}, {"conceptId": "C101924", "definition": "Auditory Verbal Learning Test Version A - List A, Recall 2, Word 12.", "preferredTerm": "ADNI AVLT - List A Recall 2 Word 12", "submissionValue": "AVL01029", "synonyms": ["AVL01-List A Recall 2 Word 12"]}, {"conceptId": "C101925", "definition": "Auditory Verbal Learning Test Version A - List A, Recall 2, Word 13.", "preferredTerm": "ADNI AVLT - List A Recall 2 Word 13", "submissionValue": "AVL01030", "synonyms": ["AVL01-List A Recall 2 Word 13"]}, {"conceptId": "C101926", "definition": "Auditory Verbal Learning Test Version A - List A, Recall 2, Word 14.", "preferredTerm": "ADNI AVLT - List A Recall 2 Word 14", "submissionValue": "AVL01031", "synonyms": ["AVL01-List A Recall 2 Word 14"]}, {"conceptId": "C101927", "definition": "Auditory Verbal Learning Test Version A - List A, Recall 2, Word 15.", "preferredTerm": "ADNI AVLT - List A Recall 2 Word 15", "submissionValue": "AVL01032", "synonyms": ["AVL01-List A Recall 2 Word 15"]}, {"conceptId": "C101928", "definition": "Auditory Verbal Learning Test Version A - The number of words recalled from List A, second attempt.", "preferredTerm": "ADNI AVLT - List A Recall 2 Total", "submissionValue": "AVL01033", "synonyms": ["AVL01-List A Recall 2 Total"]}, {"conceptId": "C101929", "definition": "Auditory Verbal Learning Test Version A - The number of intrusions while recalling List A, second attempt.", "preferredTerm": "ADNI AVLT - List A Intrusions 2", "submissionValue": "AVL01034", "synonyms": ["AVL01-List A Intrusions 2"]}, {"conceptId": "C101930", "definition": "Auditory Verbal Learning Test Version A - List A, Recall 3, Word 1.", "preferredTerm": "ADNI AVLT - List A Recall 3 Word 1", "submissionValue": "AVL01035", "synonyms": ["AVL01-List A Recall 3 Word 1"]}, {"conceptId": "C101931", "definition": "Auditory Verbal Learning Test Version A - List A, Recall 3, Word 2.", "preferredTerm": "ADNI AVLT - List A Recall 3 Word 2", "submissionValue": "AVL01036", "synonyms": ["AVL01-List A Recall 3 Word 2"]}, {"conceptId": "C101932", "definition": "Auditory Verbal Learning Test Version A - List A, Recall 3, Word 3.", "preferredTerm": "ADNI AVLT - List A Recall 3 Word 3", "submissionValue": "AVL01037", "synonyms": ["AVL01-List A Recall 3 Word 3"]}, {"conceptId": "C101933", "definition": "Auditory Verbal Learning Test Version A - List A, Recall 3, Word 4.", "preferredTerm": "ADNI AVLT - List A Recall 3 Word 4", "submissionValue": "AVL01038", "synonyms": ["AVL01-List A Recall 3 Word 4"]}, {"conceptId": "C101934", "definition": "Auditory Verbal Learning Test Version A - List A, Recall 3, Word 5.", "preferredTerm": "ADNI AVLT - List A Recall 3 Word 5", "submissionValue": "AVL01039", "synonyms": ["AVL01-List A Recall 3 Word 5"]}, {"conceptId": "C101935", "definition": "Auditory Verbal Learning Test Version A - List A, Recall 3, Word 6.", "preferredTerm": "ADNI AVLT - List A Recall 3 Word 6", "submissionValue": "AVL01040", "synonyms": ["AVL01-List A Recall 3 Word 6"]}, {"conceptId": "C101936", "definition": "Auditory Verbal Learning Test Version A - List A, Recall 3, Word 7.", "preferredTerm": "ADNI AVLT - List A Recall 3 Word 7", "submissionValue": "AVL01041", "synonyms": ["AVL01-List A Recall 3 Word 7"]}, {"conceptId": "C101937", "definition": "Auditory Verbal Learning Test Version A - List A, Recall 3, Word 8.", "preferredTerm": "ADNI AVLT - List A Recall 3 Word 8", "submissionValue": "AVL01042", "synonyms": ["AVL01-List A Recall 3 Word 8"]}, {"conceptId": "C101938", "definition": "Auditory Verbal Learning Test Version A - List A, Recall 3, Word 9.", "preferredTerm": "ADNI AVLT - List A Recall 3 Word 9", "submissionValue": "AVL01043", "synonyms": ["AVL01-List A Recall 3 Word 9"]}, {"conceptId": "C101939", "definition": "Auditory Verbal Learning Test Version A - List A, Recall 3, Word 10.", "preferredTerm": "ADNI AVLT - List A Recall 3 Word 10", "submissionValue": "AVL01044", "synonyms": ["AVL01-List A Recall 3 Word 10"]}, {"conceptId": "C101940", "definition": "Auditory Verbal Learning Test Version A - List A, Recall 3, Word 11.", "preferredTerm": "ADNI AVLT - List A Recall 3 Word 11", "submissionValue": "AVL01045", "synonyms": ["AVL01-List A Recall 3 Word 11"]}, {"conceptId": "C101941", "definition": "Auditory Verbal Learning Test Version A - List A, Recall 3, Word 12.", "preferredTerm": "ADNI AVLT - List A Recall 3 Word 12", "submissionValue": "AVL01046", "synonyms": ["AVL01-List A Recall 3 Word 12"]}, {"conceptId": "C101942", "definition": "Auditory Verbal Learning Test Version A - List A, Recall 3, Word 13.", "preferredTerm": "ADNI AVLT - List A Recall 3 Word 13", "submissionValue": "AVL01047", "synonyms": ["AVL01-List A Recall 3 Word 13"]}, {"conceptId": "C101943", "definition": "Auditory Verbal Learning Test Version A - List A, Recall 3, Word 14.", "preferredTerm": "ADNI AVLT - List A Recall 3 Word 14", "submissionValue": "AVL01048", "synonyms": ["AVL01-List A Recall 3 Word 14"]}, {"conceptId": "C101944", "definition": "Auditory Verbal Learning Test Version A - List A, Recall 3, Word 15.", "preferredTerm": "ADNI AVLT - List A Recall 3 Word 15", "submissionValue": "AVL01049", "synonyms": ["AVL01-List A Recall 3 Word 15"]}, {"conceptId": "C101945", "definition": "Auditory Verbal Learning Test Version A - The number of words recalled from List A, third attempt.", "preferredTerm": "ADNI AVLT - List A Recall 3 Total", "submissionValue": "AVL01050", "synonyms": ["AVL01-List A Recall 3 Total"]}, {"conceptId": "C101946", "definition": "Auditory Verbal Learning Test Version A - The number of intrusions while recalling List A, third attempt.", "preferredTerm": "ADNI AVLT - List A Intrusions 3", "submissionValue": "AVL01051", "synonyms": ["AVL01-List A Intrusions 3"]}, {"conceptId": "C101947", "definition": "Auditory Verbal Learning Test Version A - List A, Recall 4, Word 1.", "preferredTerm": "ADNI AVLT - List A Recall 4 Word 1", "submissionValue": "AVL01052", "synonyms": ["AVL01-List A Recall 4 Word 1"]}, {"conceptId": "C101948", "definition": "Auditory Verbal Learning Test Version A - List A, Recall 4, Word 2.", "preferredTerm": "ADNI AVLT - List A Recall 4 Word 2", "submissionValue": "AVL01053", "synonyms": ["AVL01-List A Recall 4 Word 2"]}, {"conceptId": "C101949", "definition": "Auditory Verbal Learning Test Version A - List A, Recall 4, Word 3.", "preferredTerm": "ADNI AVLT - List A Recall 4 Word 3", "submissionValue": "AVL01054", "synonyms": ["AVL01-List A Recall 4 Word 3"]}, {"conceptId": "C101950", "definition": "Auditory Verbal Learning Test Version A - List A, Recall 4, Word 4.", "preferredTerm": "ADNI AVLT - List A Recall 4 Word 4", "submissionValue": "AVL01055", "synonyms": ["AVL01-List A Recall 4 Word 4"]}, {"conceptId": "C101951", "definition": "Auditory Verbal Learning Test Version A - List A, Recall 4, Word 5.", "preferredTerm": "ADNI AVLT - List A Recall 4 Word 5", "submissionValue": "AVL01056", "synonyms": ["AVL01-List A Recall 4 Word 5"]}, {"conceptId": "C101952", "definition": "Auditory Verbal Learning Test Version A - List A, Recall 4, Word 6.", "preferredTerm": "ADNI AVLT - List A Recall 4 Word 6", "submissionValue": "AVL01057", "synonyms": ["AVL01-List A Recall 4 Word 6"]}, {"conceptId": "C101953", "definition": "Auditory Verbal Learning Test Version A - List A, Recall 4, Word 7.", "preferredTerm": "ADNI AVLT - List A Recall 4 Word 7", "submissionValue": "AVL01058", "synonyms": ["AVL01-List A Recall 4 Word 7"]}, {"conceptId": "C101954", "definition": "Auditory Verbal Learning Test Version A - List A, Recall 4, Word 8.", "preferredTerm": "ADNI AVLT - List A Recall 4 Word 8", "submissionValue": "AVL01059", "synonyms": ["AVL01-List A Recall 4 Word 8"]}, {"conceptId": "C101955", "definition": "Auditory Verbal Learning Test Version A - List A, Recall 4, Word 9.", "preferredTerm": "ADNI AVLT - List A Recall 4 Word 9", "submissionValue": "AVL01060", "synonyms": ["AVL01-List A Recall 4 Word 9"]}, {"conceptId": "C101956", "definition": "Auditory Verbal Learning Test Version A - List A, Recall 4, Word 10.", "preferredTerm": "ADNI AVLT - List A Recall 4 Word 10", "submissionValue": "AVL01061", "synonyms": ["AVL01-List A Recall 4 Word 10"]}, {"conceptId": "C101957", "definition": "Auditory Verbal Learning Test Version A - List A, Recall 4, Word 11.", "preferredTerm": "ADNI AVLT - List A Recall 4 Word 11", "submissionValue": "AVL01062", "synonyms": ["AVL01-List A Recall 4 Word 11"]}, {"conceptId": "C101958", "definition": "Auditory Verbal Learning Test Version A - List A, Recall 4, Word 12.", "preferredTerm": "ADNI AVLT - List A Recall 4 Word 12", "submissionValue": "AVL01063", "synonyms": ["AVL01-List A Recall 4 Word 12"]}, {"conceptId": "C101959", "definition": "Auditory Verbal Learning Test Version A - List A, Recall 4, Word 13.", "preferredTerm": "ADNI AVLT - List A Recall 4 Word 13", "submissionValue": "AVL01064", "synonyms": ["AVL01-List A Recall 4 Word 13"]}, {"conceptId": "C101960", "definition": "Auditory Verbal Learning Test Version A - List A, Recall 4, Word 14.", "preferredTerm": "ADNI AVLT - List A Recall 4 Word 14", "submissionValue": "AVL01065", "synonyms": ["AVL01-List A Recall 4 Word 14"]}, {"conceptId": "C101961", "definition": "Auditory Verbal Learning Test Version A - List A, Recall 4, Word 15.", "preferredTerm": "ADNI AVLT - List A Recall 4 Word 15", "submissionValue": "AVL01066", "synonyms": ["AVL01-List A Recall 4 Word 15"]}, {"conceptId": "C101962", "definition": "Auditory Verbal Learning Test Version A - The number of words recalled from List A, fourth attempt.", "preferredTerm": "ADNI AVLT - List A Recall 4 Total", "submissionValue": "AVL01067", "synonyms": ["AVL01-List A Recall 4 Total"]}, {"conceptId": "C101963", "definition": "Auditory Verbal Learning Test Version A - The number of intrusions while recalling List A, fourth attempt.", "preferredTerm": "ADNI AVLT - List A Intrusions 4", "submissionValue": "AVL01068", "synonyms": ["AVL01-List A Intrusions 4"]}, {"conceptId": "C101964", "definition": "Auditory Verbal Learning Test Version A - List A, Recall 5, Word 1.", "preferredTerm": "ADNI AVLT - List A Recall 5 Word 1", "submissionValue": "AVL01069", "synonyms": ["AVL01-List A Recall 5 Word 1"]}, {"conceptId": "C101965", "definition": "Auditory Verbal Learning Test Version A - List A, Recall 5, Word 2.", "preferredTerm": "ADNI AVLT - List A Recall 5 Word 2", "submissionValue": "AVL01070", "synonyms": ["AVL01-List A Recall 5 Word 2"]}, {"conceptId": "C101966", "definition": "Auditory Verbal Learning Test Version A - List A, Recall 5, Word 3.", "preferredTerm": "ADNI AVLT - List A Recall 5 Word 3", "submissionValue": "AVL01071", "synonyms": ["AVL01-List A Recall 5 Word 3"]}, {"conceptId": "C101967", "definition": "Auditory Verbal Learning Test Version A - List A, Recall 5, Word 4.", "preferredTerm": "ADNI AVLT - List A Recall 5 Word 4", "submissionValue": "AVL01072", "synonyms": ["AVL01-List A Recall 5 Word 4"]}, {"conceptId": "C101968", "definition": "Auditory Verbal Learning Test Version A - List A, Recall 5, Word 5.", "preferredTerm": "ADNI AVLT - List A Recall 5 Word 5", "submissionValue": "AVL01073", "synonyms": ["AVL01-List A Recall 5 Word 5"]}, {"conceptId": "C101969", "definition": "Auditory Verbal Learning Test Version A - List A, Recall 5, Word 6.", "preferredTerm": "ADNI AVLT - List A Recall 5 Word 6", "submissionValue": "AVL01074", "synonyms": ["AVL01-List A Recall 5 Word 6"]}, {"conceptId": "C101970", "definition": "Auditory Verbal Learning Test Version A - List A, Recall 5, Word 7.", "preferredTerm": "ADNI AVLT - List A Recall 5 Word 7", "submissionValue": "AVL01075", "synonyms": ["AVL01-List A Recall 5 Word 7"]}, {"conceptId": "C101971", "definition": "Auditory Verbal Learning Test Version A - List A, Recall 5, Word 8.", "preferredTerm": "ADNI AVLT - List A Recall 5 Word 8", "submissionValue": "AVL01076", "synonyms": ["AVL01-List A Recall 5 Word 8"]}, {"conceptId": "C101972", "definition": "Auditory Verbal Learning Test Version A - List A, Recall 5, Word 9.", "preferredTerm": "ADNI AVLT - List A Recall 5 Word 9", "submissionValue": "AVL01077", "synonyms": ["AVL01-List A Recall 5 Word 9"]}, {"conceptId": "C101973", "definition": "Auditory Verbal Learning Test Version A - List A, Recall 5, Word 10.", "preferredTerm": "ADNI AVLT - List A Recall 5 Word 10", "submissionValue": "AVL01078", "synonyms": ["AVL01-List A Recall 5 Word 10"]}, {"conceptId": "C101974", "definition": "Auditory Verbal Learning Test Version A - List A, Recall 5, Word 11.", "preferredTerm": "ADNI AVLT - List A Recall 5 Word 11", "submissionValue": "AVL01079", "synonyms": ["AVL01-List A Recall 5 Word 11"]}, {"conceptId": "C101975", "definition": "Auditory Verbal Learning Test Version A - List A, Recall 5, Word 12.", "preferredTerm": "ADNI AVLT - List A Recall 5 Word 12", "submissionValue": "AVL01080", "synonyms": ["AVL01-List A Recall 5 Word 12"]}, {"conceptId": "C101976", "definition": "Auditory Verbal Learning Test Version A - List A, Recall 5, Word 13.", "preferredTerm": "ADNI AVLT - List A Recall 5 Word 13", "submissionValue": "AVL01081", "synonyms": ["AVL01-List A Recall 5 Word 13"]}, {"conceptId": "C101977", "definition": "Auditory Verbal Learning Test Version A - List A, Recall 5, Word 14.", "preferredTerm": "ADNI AVLT - List A Recall 5 Word 14", "submissionValue": "AVL01082", "synonyms": ["AVL01-List A Recall 5 Word 14"]}, {"conceptId": "C101978", "definition": "Auditory Verbal Learning Test Version A - List A, Recall 5, Word 15.", "preferredTerm": "ADNI AVLT - List A Recall 5 Word 15", "submissionValue": "AVL01083", "synonyms": ["AVL01-List A Recall 5 Word 15"]}, {"conceptId": "C101979", "definition": "Auditory Verbal Learning Test Version A - The number of words recalled from List A, fifth attempt.", "preferredTerm": "ADNI AVLT - List A Recall 5 Total", "submissionValue": "AVL01084", "synonyms": ["AVL01-List A Recall 5 Total"]}, {"conceptId": "C101980", "definition": "Auditory Verbal Learning Test Version A - The number of intrusions while recalling List A, fifth attempt.", "preferredTerm": "ADNI AVLT - List A Intrusions 5", "submissionValue": "AVL01085", "synonyms": ["AVL01-List A Intrusions 5"]}, {"conceptId": "C101981", "definition": "Auditory Verbal Learning Test Version A - List A, Recall 6 (after B Recall), Word 1.", "preferredTerm": "ADNI AVLT - List A Recall 6 (After B) Word 1", "submissionValue": "AVL01086", "synonyms": ["AVL01-List A Recall 6 (After B) Word 1"]}, {"conceptId": "C101982", "definition": "Auditory Verbal Learning Test Version A - List A, Recall 6 (after B Recall), Word 2.", "preferredTerm": "ADNI AVLT - List A Recall 6 (After B) Word 2", "submissionValue": "AVL01087", "synonyms": ["AVL01-List A Recall 6 (After B) Word 2"]}, {"conceptId": "C101983", "definition": "Auditory Verbal Learning Test Version A - List A, Recall 6 (after B Recall), Word 3.", "preferredTerm": "ADNI AVLT - List A Recall 6 (After B) Word 3", "submissionValue": "AVL01088", "synonyms": ["AVL01-List A Recall 6 (After B) Word 3"]}, {"conceptId": "C101984", "definition": "Auditory Verbal Learning Test Version A - List A, Recall 6 (after B Recall), Word 4.", "preferredTerm": "ADNI AVLT - List A Recall 6 (After B) Word 4", "submissionValue": "AVL01089", "synonyms": ["AVL01-List A Recall 6 (After B) Word 4"]}, {"conceptId": "C101985", "definition": "Auditory Verbal Learning Test Version A - List A, Recall 6 (after B Recall), Word 5.", "preferredTerm": "ADNI AVLT - List A Recall 6 (After B) Word 5", "submissionValue": "AVL01090", "synonyms": ["AVL01-List A Recall 6 (After B) Word 5"]}, {"conceptId": "C101986", "definition": "Auditory Verbal Learning Test Version A - List A, Recall 6 (after B Recall), Word 6.", "preferredTerm": "ADNI AVLT - List A Recall 6 (After B) Word 6", "submissionValue": "AVL01091", "synonyms": ["AVL01-List A Recall 6 (After B) Word 6"]}, {"conceptId": "C101987", "definition": "Auditory Verbal Learning Test Version A - List A, Recall 6 (after B Recall), Word 7.", "preferredTerm": "ADNI AVLT - List A Recall 6 (After B) Word 7", "submissionValue": "AVL01092", "synonyms": ["AVL01-List A Recall 6 (After B) Word 7"]}, {"conceptId": "C101988", "definition": "Auditory Verbal Learning Test Version A - List A, Recall 6 (after B Recall), Word 8.", "preferredTerm": "ADNI AVLT - List A Recall 6 (After B) Word 8", "submissionValue": "AVL01093", "synonyms": ["AVL01-List A Recall 6 (After B) Word 8"]}, {"conceptId": "C101989", "definition": "Auditory Verbal Learning Test Version A - List A, Recall 6 (after B Recall), Word 9.", "preferredTerm": "ADNI AVLT - List A Recall 6 (After B) Word 9", "submissionValue": "AVL01094", "synonyms": ["AVL01-List A Recall 6 (After B) Word 9"]}, {"conceptId": "C101990", "definition": "Auditory Verbal Learning Test Version A - List A, Recall 6 (after B Recall), Word 10.", "preferredTerm": "ADNI AVLT - List A Recall 6 (After B) Word 10", "submissionValue": "AVL01095", "synonyms": ["AVL01-List A Recall 6 (After B) Word 10"]}, {"conceptId": "C101991", "definition": "Auditory Verbal Learning Test Version A - List A, Recall 6 (after B Recall), Word 11.", "preferredTerm": "ADNI AVLT - List A Recall 6 (After B) Word 11", "submissionValue": "AVL01096", "synonyms": ["AVL01-List A Recall 6 (After B) Word 11"]}, {"conceptId": "C101992", "definition": "Auditory Verbal Learning Test Version A - List A, Recall 6 (after B Recall), Word 12.", "preferredTerm": "ADNI AVLT - List A Recall 6 (After B) Word 12", "submissionValue": "AVL01097", "synonyms": ["AVL01-List A Recall 6 (After B) Word 12"]}, {"conceptId": "C101993", "definition": "Auditory Verbal Learning Test Version A - List A, Recall 6 (after B Recall), Word 13.", "preferredTerm": "ADNI AVLT - List A Recall 6 (After B) Word 13", "submissionValue": "AVL01098", "synonyms": ["AVL01-List A Recall 6 (After B) Word 13"]}, {"conceptId": "C101994", "definition": "Auditory Verbal Learning Test Version A - List A, Recall 6 (after B Recall), Word 14.", "preferredTerm": "ADNI AVLT - List A Recall 6 (After B) Word 14", "submissionValue": "AVL01099", "synonyms": ["AVL01-List A Recall 6 (After B) Word 14"]}, {"conceptId": "C101995", "definition": "Auditory Verbal Learning Test Version A - List A, Recall 6 (after B Recall), Word 15.", "preferredTerm": "ADNI AVLT - List A Recall 6 (After B) Word 15", "submissionValue": "AVL01100", "synonyms": ["AVL01-List A Recall 6 (After B) Word 15"]}, {"conceptId": "C101996", "definition": "Auditory Verbal Learning Test Version A - The number of words recalled from List A, sixth attempt (after List B recall).", "preferredTerm": "ADNI AVLT - List A Recall 6 (After B) Total", "submissionValue": "AVL01101", "synonyms": ["AVL01-List A Recall 6 (After B) Total"]}, {"conceptId": "C101997", "definition": "Auditory Verbal Learning Test Version A - The number of intrusions while recalling List A, sixth attempt (after List B recall).", "preferredTerm": "ADNI AVLT - List A Intrusions 6", "submissionValue": "AVL01102", "synonyms": ["AVL01-List A Intrusions 6"]}, {"conceptId": "C101998", "definition": "Auditory Verbal Learning Test Version A - List B, Word 1.", "preferredTerm": "ADNI AVLT - List B Recall Word 1", "submissionValue": "AVL01103", "synonyms": ["AVL01-List B Recall Word 1"]}, {"conceptId": "C101999", "definition": "Auditory Verbal Learning Test Version A - List B, Word 2.", "preferredTerm": "ADNI AVLT - List B Recall Word 2", "submissionValue": "AVL01104", "synonyms": ["AVL01-List B Recall Word 2"]}, {"conceptId": "C102000", "definition": "Auditory Verbal Learning Test Version A - List B, Word 3.", "preferredTerm": "ADNI AVLT - List B Recall Word 3", "submissionValue": "AVL01105", "synonyms": ["AVL01-List B Recall Word 3"]}, {"conceptId": "C102001", "definition": "Auditory Verbal Learning Test Version A - List B, Word 4.", "preferredTerm": "ADNI AVLT - List B Recall Word 4", "submissionValue": "AVL01106", "synonyms": ["AVL01-List B Recall Word 4"]}, {"conceptId": "C102002", "definition": "Auditory Verbal Learning Test Version A - List B, Word 5.", "preferredTerm": "ADNI AVLT - List B Recall Word 5", "submissionValue": "AVL01107", "synonyms": ["AVL01-List B Recall Word 5"]}, {"conceptId": "C102003", "definition": "Auditory Verbal Learning Test Version A - List B, Word 6.", "preferredTerm": "ADNI AVLT - List B Recall Word 6", "submissionValue": "AVL01108", "synonyms": ["AVL01-List B Recall Word 6"]}, {"conceptId": "C102004", "definition": "Auditory Verbal Learning Test Version A - List B, Word 7.", "preferredTerm": "ADNI AVLT - List B Recall Word 7", "submissionValue": "AVL01109", "synonyms": ["AVL01-List B Recall Word 7"]}, {"conceptId": "C102005", "definition": "Auditory Verbal Learning Test Version A - List B, Word 8.", "preferredTerm": "ADNI AVLT - List B Recall Word 8", "submissionValue": "AVL01110", "synonyms": ["AVL01-List B Recall Word 8"]}, {"conceptId": "C102006", "definition": "Auditory Verbal Learning Test Version A - List B, Word 9.", "preferredTerm": "ADNI AVLT - List B Recall Word 9", "submissionValue": "AVL01111", "synonyms": ["AVL01-List B Recall Word 9"]}, {"conceptId": "C102007", "definition": "Auditory Verbal Learning Test Version A - List B, Word 10.", "preferredTerm": "ADNI AVLT - List B Recall Word 10", "submissionValue": "AVL01112", "synonyms": ["AVL01-List B Recall Word 10"]}, {"conceptId": "C102008", "definition": "Auditory Verbal Learning Test Version A - List B, Word 11.", "preferredTerm": "ADNI AVLT - List B Recall Word 11", "submissionValue": "AVL01113", "synonyms": ["AVL01-List B Recall Word 11"]}, {"conceptId": "C102009", "definition": "Auditory Verbal Learning Test Version A - List B, Word 12.", "preferredTerm": "ADNI AVLT - List B Recall Word 12", "submissionValue": "AVL01114", "synonyms": ["AVL01-List B Recall Word 12"]}, {"conceptId": "C102010", "definition": "Auditory Verbal Learning Test Version A - List B, Word 13.", "preferredTerm": "ADNI AVLT - List B Recall Word 13", "submissionValue": "AVL01115", "synonyms": ["AVL01-List B Recall Word 13"]}, {"conceptId": "C102011", "definition": "Auditory Verbal Learning Test Version A - List B, Word 14.", "preferredTerm": "ADNI AVLT - List B Recall Word 14", "submissionValue": "AVL01116", "synonyms": ["AVL01-List B Recall Word 14"]}, {"conceptId": "C102012", "definition": "Auditory Verbal Learning Test Version A - List B, Word 15.", "preferredTerm": "ADNI AVLT - List B Recall Word 15", "submissionValue": "AVL01117", "synonyms": ["AVL01-List B Recall Word 15"]}, {"conceptId": "C102013", "definition": "Auditory Verbal Learning Test Version A - The number of words recalled from List B.", "preferredTerm": "ADNI AVLT - List B Recall Total", "submissionValue": "AVL01118", "synonyms": ["AVL01-List B Recall Total"]}, {"conceptId": "C102014", "definition": "Auditory Verbal Learning Test Version A - The number of intrusions while recalling List B.", "preferredTerm": "ADNI AVLT - List B Intrusions", "submissionValue": "AVL01119", "synonyms": ["AVL01-List B Intrusions"]}, {"conceptId": "C102015", "definition": "Auditory Verbal Learning Test Version A - List A, 30 Minute Delay Recall, Word 1.", "preferredTerm": "ADNI AVLT - List A 30 Min Delay Recall Word 1", "submissionValue": "AVL01120", "synonyms": ["AVL01-List A 30 Min Delay Recall Word 1"]}, {"conceptId": "C102016", "definition": "Auditory Verbal Learning Test Version A - List A, 30 Minute Delay Recall, Word 2.", "preferredTerm": "ADNI AVLT - List A 30 Min Delay Recall Word 2", "submissionValue": "AVL01121", "synonyms": ["AVL01-List A 30 Min Delay Recall Word 2"]}, {"conceptId": "C102017", "definition": "Auditory Verbal Learning Test Version A - List A, 30 Minute Delay Recall, Word 3.", "preferredTerm": "ADNI AVLT - List A 30 Min Delay Recall Word 3", "submissionValue": "AVL01122", "synonyms": ["AVL01-List A 30 Min Delay Recall Word 3"]}, {"conceptId": "C102018", "definition": "Auditory Verbal Learning Test Version A - List A, 30 Minute Delay Recall, Word 4.", "preferredTerm": "ADNI AVLT - List A 30 Min Delay Recall Word 4", "submissionValue": "AVL01123", "synonyms": ["AVL01-List A 30 Min Delay Recall Word 4"]}, {"conceptId": "C102019", "definition": "Auditory Verbal Learning Test Version A - List A, 30 Minute Delay Recall, Word 5.", "preferredTerm": "ADNI AVLT - List A 30 Min Delay Recall Word 5", "submissionValue": "AVL01124", "synonyms": ["AVL01-List A 30 Min Delay Recall Word 5"]}, {"conceptId": "C102020", "definition": "Auditory Verbal Learning Test Version A - List A, 30 Minute Delay Recall, Word 6.", "preferredTerm": "ADNI AVLT - List A 30 Min Delay Recall Word 6", "submissionValue": "AVL01125", "synonyms": ["AVL01-List A 30 Min Delay Recall Word 6"]}, {"conceptId": "C102021", "definition": "Auditory Verbal Learning Test Version A - List A, 30 Minute Delay Recall, Word 7.", "preferredTerm": "ADNI AVLT - List A 30 Min Delay Recall Word 7", "submissionValue": "AVL01126", "synonyms": ["AVL01-List A 30 Min Delay Recall Word 7"]}, {"conceptId": "C102022", "definition": "Auditory Verbal Learning Test Version A - List A, 30 Minute Delay Recall, Word 8.", "preferredTerm": "ADNI AVLT - List A 30 Min Delay Recall Word 8", "submissionValue": "AVL01127", "synonyms": ["AVL01-List A 30 Min Delay Recall Word 8"]}, {"conceptId": "C102023", "definition": "Auditory Verbal Learning Test Version A - List A, 30 Minute Delay Recall, Word 9.", "preferredTerm": "ADNI AVLT - List A 30 Min Delay Recall Word 9", "submissionValue": "AVL01128", "synonyms": ["AVL01-List A 30 Min Delay Recall Word 9"]}, {"conceptId": "C102024", "definition": "Auditory Verbal Learning Test Version A - List A, 30 Minute Delay Recall, Word 10.", "preferredTerm": "ADNI AVLT - List A 30 Min Delay Recall Word 10", "submissionValue": "AVL01129", "synonyms": ["AVL01-List A 30 Min Delay Recall Word 10"]}, {"conceptId": "C102025", "definition": "Auditory Verbal Learning Test Version A - List A, 30 Minute Delay Recall, Word 11.", "preferredTerm": "ADNI AVLT - List A 30 Min Delay Recall Word 11", "submissionValue": "AVL01130", "synonyms": ["AVL01-List A 30 Min Delay Recall Word 11"]}, {"conceptId": "C102026", "definition": "Auditory Verbal Learning Test Version A - List A, 30 Minute Delay Recall, Word 12.", "preferredTerm": "ADNI AVLT - List A 30 Min Delay Recall Word 12", "submissionValue": "AVL01131", "synonyms": ["AVL01-List A 30 Min Delay Recall Word 12"]}, {"conceptId": "C102027", "definition": "Auditory Verbal Learning Test Version A - List A, 30 Minute Delay Recall, Word 13.", "preferredTerm": "ADNI AVLT - List A 30 Min Delay Recall Word 13", "submissionValue": "AVL01132", "synonyms": ["AVL01-List A 30 Min Delay Recall Word 13"]}, {"conceptId": "C102028", "definition": "Auditory Verbal Learning Test Version A - List A, 30 Minute Delay Recall, Word 14.", "preferredTerm": "ADNI AVLT - List A 30 Min Delay Recall Word 14", "submissionValue": "AVL01133", "synonyms": ["AVL01-List A 30 Min Delay Recall Word 14"]}, {"conceptId": "C102029", "definition": "Auditory Verbal Learning Test Version A - List A, 30 Minute Delay Recall, Word 15.", "preferredTerm": "ADNI AVLT - List A 30 Min Delay Recall Word 15", "submissionValue": "AVL01134", "synonyms": ["AVL01-List A 30 Min Delay Recall Word 15"]}, {"conceptId": "C102030", "definition": "Auditory Verbal Learning Test Version A - The number of words recalled from List A, 30 Minute Delay recall.", "preferredTerm": "ADNI AVLT - List A 30 Min Delay Recall Total", "submissionValue": "AVL01135", "synonyms": ["AVL01-List A 30 Min Delay Recall Total"]}, {"conceptId": "C102031", "definition": "Auditory Verbal Learning Test Version A - The number of intrusions while recalling List A, 30 Minute Delay.", "preferredTerm": "ADNI AVLT - List A 30 Min Delay Intrusions", "submissionValue": "AVL01136", "synonyms": ["AVL01-List A 30 Min Delay Intrusions"]}, {"conceptId": "C102032", "definition": "Auditory Verbal Learning Test Version A - The number of words correct on recognition test.", "preferredTerm": "ADNI AVLT - List A Recognition Total", "submissionValue": "AVL01137", "synonyms": ["AVL01-List A Recognition Total"]}, {"conceptId": "C102033", "definition": "Auditory Verbal Learning Test Version A - The number of intrusions on recognition test.", "preferredTerm": "ADNI AVLT - List A Recognition Intrusions", "submissionValue": "AVL01138", "synonyms": ["AVL01-List A Recognition Intrusions"]}]}, {"conceptId": "C101808", "definition": "ADNI AVLT test name.", "extensible": "false", "name": "ADNI Auditory Verbal Learning Functional Test Test Name", "preferredTerm": "CDISC Functional Test ADNI AVLT Test Name Terminology", "submissionValue": "AVL01TN", "synonyms": ["ADNI Auditory Verbal Learning Functional Test Test Name"], "terms": [{"conceptId": "C102031", "definition": "Auditory Verbal Learning Test Version A - The number of intrusions while recalling List A, 30 Minute Delay.", "preferredTerm": "ADNI AVLT - List A 30 Min Delay Intrusions", "submissionValue": "AVL01-List A 30 Min Delay Intrusions", "synonyms": ["AVL01-List A 30 Min Delay Intrusions"]}, {"conceptId": "C102030", "definition": "Auditory Verbal Learning Test Version A - The number of words recalled from List A, 30 Minute Delay recall.", "preferredTerm": "ADNI AVLT - List A 30 Min Delay Recall Total", "submissionValue": "AVL01-List A 30 Min Delay Recall Total", "synonyms": ["AVL01-List A 30 Min Delay Recall Total"]}, {"conceptId": "C102015", "definition": "Auditory Verbal Learning Test Version A - List A, 30 Minute Delay Recall, Word 1.", "preferredTerm": "ADNI AVLT - List A 30 Min Delay Recall Word 1", "submissionValue": "AVL01-List A 30 Min Delay Recall Word 1", "synonyms": ["AVL01-List A 30 Min Delay Recall Word 1"]}, {"conceptId": "C102024", "definition": "Auditory Verbal Learning Test Version A - List A, 30 Minute Delay Recall, Word 10.", "preferredTerm": "ADNI AVLT - List A 30 Min Delay Recall Word 10", "submissionValue": "AVL01-List A 30 Min Delay Recall Word 10", "synonyms": ["AVL01-List A 30 Min Delay Recall Word 10"]}, {"conceptId": "C102025", "definition": "Auditory Verbal Learning Test Version A - List A, 30 Minute Delay Recall, Word 11.", "preferredTerm": "ADNI AVLT - List A 30 Min Delay Recall Word 11", "submissionValue": "AVL01-List A 30 Min Delay Recall Word 11", "synonyms": ["AVL01-List A 30 Min Delay Recall Word 11"]}, {"conceptId": "C102026", "definition": "Auditory Verbal Learning Test Version A - List A, 30 Minute Delay Recall, Word 12.", "preferredTerm": "ADNI AVLT - List A 30 Min Delay Recall Word 12", "submissionValue": "AVL01-List A 30 Min Delay Recall Word 12", "synonyms": ["AVL01-List A 30 Min Delay Recall Word 12"]}, {"conceptId": "C102027", "definition": "Auditory Verbal Learning Test Version A - List A, 30 Minute Delay Recall, Word 13.", "preferredTerm": "ADNI AVLT - List A 30 Min Delay Recall Word 13", "submissionValue": "AVL01-List A 30 Min Delay Recall Word 13", "synonyms": ["AVL01-List A 30 Min Delay Recall Word 13"]}, {"conceptId": "C102028", "definition": "Auditory Verbal Learning Test Version A - List A, 30 Minute Delay Recall, Word 14.", "preferredTerm": "ADNI AVLT - List A 30 Min Delay Recall Word 14", "submissionValue": "AVL01-List A 30 Min Delay Recall Word 14", "synonyms": ["AVL01-List A 30 Min Delay Recall Word 14"]}, {"conceptId": "C102029", "definition": "Auditory Verbal Learning Test Version A - List A, 30 Minute Delay Recall, Word 15.", "preferredTerm": "ADNI AVLT - List A 30 Min Delay Recall Word 15", "submissionValue": "AVL01-List A 30 Min Delay Recall Word 15", "synonyms": ["AVL01-List A 30 Min Delay Recall Word 15"]}, {"conceptId": "C102016", "definition": "Auditory Verbal Learning Test Version A - List A, 30 Minute Delay Recall, Word 2.", "preferredTerm": "ADNI AVLT - List A 30 Min Delay Recall Word 2", "submissionValue": "AVL01-List A 30 Min Delay Recall Word 2", "synonyms": ["AVL01-List A 30 Min Delay Recall Word 2"]}, {"conceptId": "C102017", "definition": "Auditory Verbal Learning Test Version A - List A, 30 Minute Delay Recall, Word 3.", "preferredTerm": "ADNI AVLT - List A 30 Min Delay Recall Word 3", "submissionValue": "AVL01-List A 30 Min Delay Recall Word 3", "synonyms": ["AVL01-List A 30 Min Delay Recall Word 3"]}, {"conceptId": "C102018", "definition": "Auditory Verbal Learning Test Version A - List A, 30 Minute Delay Recall, Word 4.", "preferredTerm": "ADNI AVLT - List A 30 Min Delay Recall Word 4", "submissionValue": "AVL01-List A 30 Min Delay Recall Word 4", "synonyms": ["AVL01-List A 30 Min Delay Recall Word 4"]}, {"conceptId": "C102019", "definition": "Auditory Verbal Learning Test Version A - List A, 30 Minute Delay Recall, Word 5.", "preferredTerm": "ADNI AVLT - List A 30 Min Delay Recall Word 5", "submissionValue": "AVL01-List A 30 Min Delay Recall Word 5", "synonyms": ["AVL01-List A 30 Min Delay Recall Word 5"]}, {"conceptId": "C102020", "definition": "Auditory Verbal Learning Test Version A - List A, 30 Minute Delay Recall, Word 6.", "preferredTerm": "ADNI AVLT - List A 30 Min Delay Recall Word 6", "submissionValue": "AVL01-List A 30 Min Delay Recall Word 6", "synonyms": ["AVL01-List A 30 Min Delay Recall Word 6"]}, {"conceptId": "C102021", "definition": "Auditory Verbal Learning Test Version A - List A, 30 Minute Delay Recall, Word 7.", "preferredTerm": "ADNI AVLT - List A 30 Min Delay Recall Word 7", "submissionValue": "AVL01-List A 30 Min Delay Recall Word 7", "synonyms": ["AVL01-List A 30 Min Delay Recall Word 7"]}, {"conceptId": "C102022", "definition": "Auditory Verbal Learning Test Version A - List A, 30 Minute Delay Recall, Word 8.", "preferredTerm": "ADNI AVLT - List A 30 Min Delay Recall Word 8", "submissionValue": "AVL01-List A 30 Min Delay Recall Word 8", "synonyms": ["AVL01-List A 30 Min Delay Recall Word 8"]}, {"conceptId": "C102023", "definition": "Auditory Verbal Learning Test Version A - List A, 30 Minute Delay Recall, Word 9.", "preferredTerm": "ADNI AVLT - List A 30 Min Delay Recall Word 9", "submissionValue": "AVL01-List A 30 Min Delay Recall Word 9", "synonyms": ["AVL01-List A 30 Min Delay Recall Word 9"]}, {"conceptId": "C101912", "definition": "Auditory Verbal Learning Test Version A - The number of intrusions while recalling List A, first attempt.", "preferredTerm": "ADNI AVLT - List A Intrusions 1", "submissionValue": "AVL01-List A Intrusions 1", "synonyms": ["AVL01-List A Intrusions 1"]}, {"conceptId": "C101929", "definition": "Auditory Verbal Learning Test Version A - The number of intrusions while recalling List A, second attempt.", "preferredTerm": "ADNI AVLT - List A Intrusions 2", "submissionValue": "AVL01-List A Intrusions 2", "synonyms": ["AVL01-List A Intrusions 2"]}, {"conceptId": "C101946", "definition": "Auditory Verbal Learning Test Version A - The number of intrusions while recalling List A, third attempt.", "preferredTerm": "ADNI AVLT - List A Intrusions 3", "submissionValue": "AVL01-List A Intrusions 3", "synonyms": ["AVL01-List A Intrusions 3"]}, {"conceptId": "C101963", "definition": "Auditory Verbal Learning Test Version A - The number of intrusions while recalling List A, fourth attempt.", "preferredTerm": "ADNI AVLT - List A Intrusions 4", "submissionValue": "AVL01-List A Intrusions 4", "synonyms": ["AVL01-List A Intrusions 4"]}, {"conceptId": "C101980", "definition": "Auditory Verbal Learning Test Version A - The number of intrusions while recalling List A, fifth attempt.", "preferredTerm": "ADNI AVLT - List A Intrusions 5", "submissionValue": "AVL01-List A Intrusions 5", "synonyms": ["AVL01-List A Intrusions 5"]}, {"conceptId": "C101997", "definition": "Auditory Verbal Learning Test Version A - The number of intrusions while recalling List A, sixth attempt (after List B recall).", "preferredTerm": "ADNI AVLT - List A Intrusions 6", "submissionValue": "AVL01-List A Intrusions 6", "synonyms": ["AVL01-List A Intrusions 6"]}, {"conceptId": "C101911", "definition": "Auditory Verbal Learning Test Version A - The number of words recalled from List A, first attempt.", "preferredTerm": "ADNI AVLT - List A Recall 1 Total", "submissionValue": "AVL01-List A Recall 1 Total", "synonyms": ["AVL01-List A Recall 1 Total"]}, {"conceptId": "C101896", "definition": "Auditory Verbal Learning Test Version A - List A, Recall 1, Word 1.", "preferredTerm": "ADNI AVLT - List A Recall 1 Word 1", "submissionValue": "AVL01-List A Recall 1 Word 1", "synonyms": ["AVL01-List A Recall 1 Word 1"]}, {"conceptId": "C101905", "definition": "Auditory Verbal Learning Test Version A - List A, Recall 1, Word 10.", "preferredTerm": "ADNI AVLT - List A Recall 1 Word 10", "submissionValue": "AVL01-List A Recall 1 Word 10", "synonyms": ["AVL01-List A Recall 1 Word 10"]}, {"conceptId": "C101906", "definition": "Auditory Verbal Learning Test Version A - List A, Recall 1, Word 11.", "preferredTerm": "ADNI AVLT - List A Recall 1 Word 11", "submissionValue": "AVL01-List A Recall 1 Word 11", "synonyms": ["AVL01-List A Recall 1 Word 11"]}, {"conceptId": "C101907", "definition": "Auditory Verbal Learning Test Version A - List A, Recall 1, Word 12.", "preferredTerm": "ADNI AVLT - List A Recall 1 Word 12", "submissionValue": "AVL01-List A Recall 1 Word 12", "synonyms": ["AVL01-List A Recall 1 Word 12"]}, {"conceptId": "C101908", "definition": "Auditory Verbal Learning Test Version A - List A, Recall 1, Word 13.", "preferredTerm": "ADNI AVLT - List A Recall 1 Word 13", "submissionValue": "AVL01-List A Recall 1 Word 13", "synonyms": ["AVL01-List A Recall 1 Word 13"]}, {"conceptId": "C101909", "definition": "Auditory Verbal Learning Test Version A - List A, Recall 1, Word 14.", "preferredTerm": "ADNI AVLT - List A Recall 1 Word 14", "submissionValue": "AVL01-List A Recall 1 Word 14", "synonyms": ["AVL01-List A Recall 1 Word 14"]}, {"conceptId": "C101910", "definition": "Auditory Verbal Learning Test Version A - List A, Recall 1, Word 15.", "preferredTerm": "ADNI AVLT - List A Recall 1 Word 15", "submissionValue": "AVL01-List A Recall 1 Word 15", "synonyms": ["AVL01-List A Recall 1 Word 15"]}, {"conceptId": "C101897", "definition": "Auditory Verbal Learning Test Version A - List A, Recall 1, Word 2.", "preferredTerm": "ADNI AVLT - List A Recall 1 Word 2", "submissionValue": "AVL01-List A Recall 1 Word 2", "synonyms": ["AVL01-List A Recall 1 Word 2"]}, {"conceptId": "C101898", "definition": "Auditory Verbal Learning Test Version A - List A, Recall 1, Word 3.", "preferredTerm": "ADNI AVLT - List A Recall 1 Word 3", "submissionValue": "AVL01-List A Recall 1 Word 3", "synonyms": ["AVL01-List A Recall 1 Word 3"]}, {"conceptId": "C101899", "definition": "Auditory Verbal Learning Test Version A - List A, Recall 1, Word 4.", "preferredTerm": "ADNI AVLT - List A Recall 1 Word 4", "submissionValue": "AVL01-List A Recall 1 Word 4", "synonyms": ["AVL01-List A Recall 1 Word 4"]}, {"conceptId": "C101900", "definition": "Auditory Verbal Learning Test Version A - List A, Recall 1, Word 5.", "preferredTerm": "ADNI AVLT - List A Recall 1 Word 5", "submissionValue": "AVL01-List A Recall 1 Word 5", "synonyms": ["AVL01-List A Recall 1 Word 5"]}, {"conceptId": "C101901", "definition": "Auditory Verbal Learning Test Version A - List A, Recall 1, Word 6.", "preferredTerm": "ADNI AVLT - List A Recall 1 Word 6", "submissionValue": "AVL01-List A Recall 1 Word 6", "synonyms": ["AVL01-List A Recall 1 Word 6"]}, {"conceptId": "C101902", "definition": "Auditory Verbal Learning Test Version A - List A, Recall 1, Word 7.", "preferredTerm": "ADNI AVLT - List A Recall 1 Word 7", "submissionValue": "AVL01-List A Recall 1 Word 7", "synonyms": ["AVL01-List A Recall 1 Word 7"]}, {"conceptId": "C101903", "definition": "Auditory Verbal Learning Test Version A - List A, Recall 1, Word 8.", "preferredTerm": "ADNI AVLT - List A Recall 1 Word 8", "submissionValue": "AVL01-List A Recall 1 Word 8", "synonyms": ["AVL01-List A Recall 1 Word 8"]}, {"conceptId": "C101904", "definition": "Auditory Verbal Learning Test Version A - List A, Recall 1, Word 9.", "preferredTerm": "ADNI AVLT - List A Recall 1 Word 9", "submissionValue": "AVL01-List A Recall 1 Word 9", "synonyms": ["AVL01-List A Recall 1 Word 9"]}, {"conceptId": "C101928", "definition": "Auditory Verbal Learning Test Version A - The number of words recalled from List A, second attempt.", "preferredTerm": "ADNI AVLT - List A Recall 2 Total", "submissionValue": "AVL01-List A Recall 2 Total", "synonyms": ["AVL01-List A Recall 2 Total"]}, {"conceptId": "C101913", "definition": "Auditory Verbal Learning Test Version A - List A, Recall 2, Word 1.", "preferredTerm": "ADNI AVLT - List A Recall 2 Word 1", "submissionValue": "AVL01-List A Recall 2 Word 1", "synonyms": ["AVL01-List A Recall 2 Word 1"]}, {"conceptId": "C101922", "definition": "Auditory Verbal Learning Test Version A - List A, Recall 2, Word 10.", "preferredTerm": "ADNI AVLT - List A Recall 2 Word 10", "submissionValue": "AVL01-List A Recall 2 Word 10", "synonyms": ["AVL01-List A Recall 2 Word 10"]}, {"conceptId": "C101923", "definition": "Auditory Verbal Learning Test Version A - List A, Recall 2, Word 11.", "preferredTerm": "ADNI AVLT - List A Recall 2 Word 11", "submissionValue": "AVL01-List A Recall 2 Word 11", "synonyms": ["AVL01-List A Recall 2 Word 11"]}, {"conceptId": "C101924", "definition": "Auditory Verbal Learning Test Version A - List A, Recall 2, Word 12.", "preferredTerm": "ADNI AVLT - List A Recall 2 Word 12", "submissionValue": "AVL01-List A Recall 2 Word 12", "synonyms": ["AVL01-List A Recall 2 Word 12"]}, {"conceptId": "C101925", "definition": "Auditory Verbal Learning Test Version A - List A, Recall 2, Word 13.", "preferredTerm": "ADNI AVLT - List A Recall 2 Word 13", "submissionValue": "AVL01-List A Recall 2 Word 13", "synonyms": ["AVL01-List A Recall 2 Word 13"]}, {"conceptId": "C101926", "definition": "Auditory Verbal Learning Test Version A - List A, Recall 2, Word 14.", "preferredTerm": "ADNI AVLT - List A Recall 2 Word 14", "submissionValue": "AVL01-List A Recall 2 Word 14", "synonyms": ["AVL01-List A Recall 2 Word 14"]}, {"conceptId": "C101927", "definition": "Auditory Verbal Learning Test Version A - List A, Recall 2, Word 15.", "preferredTerm": "ADNI AVLT - List A Recall 2 Word 15", "submissionValue": "AVL01-List A Recall 2 Word 15", "synonyms": ["AVL01-List A Recall 2 Word 15"]}, {"conceptId": "C101914", "definition": "Auditory Verbal Learning Test Version A - List A, Recall 2, Word 2.", "preferredTerm": "ADNI AVLT - List A Recall 2 Word 2", "submissionValue": "AVL01-List A Recall 2 Word 2", "synonyms": ["AVL01-List A Recall 2 Word 2"]}, {"conceptId": "C101915", "definition": "Auditory Verbal Learning Test Version A - List A, Recall 2, Word 3.", "preferredTerm": "ADNI AVLT - List A Recall 2 Word 3", "submissionValue": "AVL01-List A Recall 2 Word 3", "synonyms": ["AVL01-List A Recall 2 Word 3"]}, {"conceptId": "C101916", "definition": "Auditory Verbal Learning Test Version A - List A, Recall 2, Word 4.", "preferredTerm": "ADNI AVLT - List A Recall 2 Word 4", "submissionValue": "AVL01-List A Recall 2 Word 4", "synonyms": ["AVL01-List A Recall 2 Word 4"]}, {"conceptId": "C101917", "definition": "Auditory Verbal Learning Test Version A - List A, Recall 2, Word 5.", "preferredTerm": "ADNI AVLT - List A Recall 2 Word 5", "submissionValue": "AVL01-List A Recall 2 Word 5", "synonyms": ["AVL01-List A Recall 2 Word 5"]}, {"conceptId": "C101918", "definition": "Auditory Verbal Learning Test Version A - List A, Recall 2, Word 6.", "preferredTerm": "ADNI AVLT - List A Recall 2 Word 6", "submissionValue": "AVL01-List A Recall 2 Word 6", "synonyms": ["AVL01-List A Recall 2 Word 6"]}, {"conceptId": "C101919", "definition": "Auditory Verbal Learning Test Version A - List A, Recall 2, Word 7.", "preferredTerm": "ADNI AVLT - List A Recall 2 Word 7", "submissionValue": "AVL01-List A Recall 2 Word 7", "synonyms": ["AVL01-List A Recall 2 Word 7"]}, {"conceptId": "C101920", "definition": "Auditory Verbal Learning Test Version A - List A, Recall 2, Word 8.", "preferredTerm": "ADNI AVLT - List A Recall 2 Word 8", "submissionValue": "AVL01-List A Recall 2 Word 8", "synonyms": ["AVL01-List A Recall 2 Word 8"]}, {"conceptId": "C101921", "definition": "Auditory Verbal Learning Test Version A - List A, Recall 2, Word 9.", "preferredTerm": "ADNI AVLT - List A Recall 2 Word 9", "submissionValue": "AVL01-List A Recall 2 Word 9", "synonyms": ["AVL01-List A Recall 2 Word 9"]}, {"conceptId": "C101945", "definition": "Auditory Verbal Learning Test Version A - The number of words recalled from List A, third attempt.", "preferredTerm": "ADNI AVLT - List A Recall 3 Total", "submissionValue": "AVL01-List A Recall 3 Total", "synonyms": ["AVL01-List A Recall 3 Total"]}, {"conceptId": "C101930", "definition": "Auditory Verbal Learning Test Version A - List A, Recall 3, Word 1.", "preferredTerm": "ADNI AVLT - List A Recall 3 Word 1", "submissionValue": "AVL01-List A Recall 3 Word 1", "synonyms": ["AVL01-List A Recall 3 Word 1"]}, {"conceptId": "C101939", "definition": "Auditory Verbal Learning Test Version A - List A, Recall 3, Word 10.", "preferredTerm": "ADNI AVLT - List A Recall 3 Word 10", "submissionValue": "AVL01-List A Recall 3 Word 10", "synonyms": ["AVL01-List A Recall 3 Word 10"]}, {"conceptId": "C101940", "definition": "Auditory Verbal Learning Test Version A - List A, Recall 3, Word 11.", "preferredTerm": "ADNI AVLT - List A Recall 3 Word 11", "submissionValue": "AVL01-List A Recall 3 Word 11", "synonyms": ["AVL01-List A Recall 3 Word 11"]}, {"conceptId": "C101941", "definition": "Auditory Verbal Learning Test Version A - List A, Recall 3, Word 12.", "preferredTerm": "ADNI AVLT - List A Recall 3 Word 12", "submissionValue": "AVL01-List A Recall 3 Word 12", "synonyms": ["AVL01-List A Recall 3 Word 12"]}, {"conceptId": "C101942", "definition": "Auditory Verbal Learning Test Version A - List A, Recall 3, Word 13.", "preferredTerm": "ADNI AVLT - List A Recall 3 Word 13", "submissionValue": "AVL01-List A Recall 3 Word 13", "synonyms": ["AVL01-List A Recall 3 Word 13"]}, {"conceptId": "C101943", "definition": "Auditory Verbal Learning Test Version A - List A, Recall 3, Word 14.", "preferredTerm": "ADNI AVLT - List A Recall 3 Word 14", "submissionValue": "AVL01-List A Recall 3 Word 14", "synonyms": ["AVL01-List A Recall 3 Word 14"]}, {"conceptId": "C101944", "definition": "Auditory Verbal Learning Test Version A - List A, Recall 3, Word 15.", "preferredTerm": "ADNI AVLT - List A Recall 3 Word 15", "submissionValue": "AVL01-List A Recall 3 Word 15", "synonyms": ["AVL01-List A Recall 3 Word 15"]}, {"conceptId": "C101931", "definition": "Auditory Verbal Learning Test Version A - List A, Recall 3, Word 2.", "preferredTerm": "ADNI AVLT - List A Recall 3 Word 2", "submissionValue": "AVL01-List A Recall 3 Word 2", "synonyms": ["AVL01-List A Recall 3 Word 2"]}, {"conceptId": "C101932", "definition": "Auditory Verbal Learning Test Version A - List A, Recall 3, Word 3.", "preferredTerm": "ADNI AVLT - List A Recall 3 Word 3", "submissionValue": "AVL01-List A Recall 3 Word 3", "synonyms": ["AVL01-List A Recall 3 Word 3"]}, {"conceptId": "C101933", "definition": "Auditory Verbal Learning Test Version A - List A, Recall 3, Word 4.", "preferredTerm": "ADNI AVLT - List A Recall 3 Word 4", "submissionValue": "AVL01-List A Recall 3 Word 4", "synonyms": ["AVL01-List A Recall 3 Word 4"]}, {"conceptId": "C101934", "definition": "Auditory Verbal Learning Test Version A - List A, Recall 3, Word 5.", "preferredTerm": "ADNI AVLT - List A Recall 3 Word 5", "submissionValue": "AVL01-List A Recall 3 Word 5", "synonyms": ["AVL01-List A Recall 3 Word 5"]}, {"conceptId": "C101935", "definition": "Auditory Verbal Learning Test Version A - List A, Recall 3, Word 6.", "preferredTerm": "ADNI AVLT - List A Recall 3 Word 6", "submissionValue": "AVL01-List A Recall 3 Word 6", "synonyms": ["AVL01-List A Recall 3 Word 6"]}, {"conceptId": "C101936", "definition": "Auditory Verbal Learning Test Version A - List A, Recall 3, Word 7.", "preferredTerm": "ADNI AVLT - List A Recall 3 Word 7", "submissionValue": "AVL01-List A Recall 3 Word 7", "synonyms": ["AVL01-List A Recall 3 Word 7"]}, {"conceptId": "C101937", "definition": "Auditory Verbal Learning Test Version A - List A, Recall 3, Word 8.", "preferredTerm": "ADNI AVLT - List A Recall 3 Word 8", "submissionValue": "AVL01-List A Recall 3 Word 8", "synonyms": ["AVL01-List A Recall 3 Word 8"]}, {"conceptId": "C101938", "definition": "Auditory Verbal Learning Test Version A - List A, Recall 3, Word 9.", "preferredTerm": "ADNI AVLT - List A Recall 3 Word 9", "submissionValue": "AVL01-List A Recall 3 Word 9", "synonyms": ["AVL01-List A Recall 3 Word 9"]}, {"conceptId": "C101962", "definition": "Auditory Verbal Learning Test Version A - The number of words recalled from List A, fourth attempt.", "preferredTerm": "ADNI AVLT - List A Recall 4 Total", "submissionValue": "AVL01-List A Recall 4 Total", "synonyms": ["AVL01-List A Recall 4 Total"]}, {"conceptId": "C101947", "definition": "Auditory Verbal Learning Test Version A - List A, Recall 4, Word 1.", "preferredTerm": "ADNI AVLT - List A Recall 4 Word 1", "submissionValue": "AVL01-List A Recall 4 Word 1", "synonyms": ["AVL01-List A Recall 4 Word 1"]}, {"conceptId": "C101956", "definition": "Auditory Verbal Learning Test Version A - List A, Recall 4, Word 10.", "preferredTerm": "ADNI AVLT - List A Recall 4 Word 10", "submissionValue": "AVL01-List A Recall 4 Word 10", "synonyms": ["AVL01-List A Recall 4 Word 10"]}, {"conceptId": "C101957", "definition": "Auditory Verbal Learning Test Version A - List A, Recall 4, Word 11.", "preferredTerm": "ADNI AVLT - List A Recall 4 Word 11", "submissionValue": "AVL01-List A Recall 4 Word 11", "synonyms": ["AVL01-List A Recall 4 Word 11"]}, {"conceptId": "C101958", "definition": "Auditory Verbal Learning Test Version A - List A, Recall 4, Word 12.", "preferredTerm": "ADNI AVLT - List A Recall 4 Word 12", "submissionValue": "AVL01-List A Recall 4 Word 12", "synonyms": ["AVL01-List A Recall 4 Word 12"]}, {"conceptId": "C101959", "definition": "Auditory Verbal Learning Test Version A - List A, Recall 4, Word 13.", "preferredTerm": "ADNI AVLT - List A Recall 4 Word 13", "submissionValue": "AVL01-List A Recall 4 Word 13", "synonyms": ["AVL01-List A Recall 4 Word 13"]}, {"conceptId": "C101960", "definition": "Auditory Verbal Learning Test Version A - List A, Recall 4, Word 14.", "preferredTerm": "ADNI AVLT - List A Recall 4 Word 14", "submissionValue": "AVL01-List A Recall 4 Word 14", "synonyms": ["AVL01-List A Recall 4 Word 14"]}, {"conceptId": "C101961", "definition": "Auditory Verbal Learning Test Version A - List A, Recall 4, Word 15.", "preferredTerm": "ADNI AVLT - List A Recall 4 Word 15", "submissionValue": "AVL01-List A Recall 4 Word 15", "synonyms": ["AVL01-List A Recall 4 Word 15"]}, {"conceptId": "C101948", "definition": "Auditory Verbal Learning Test Version A - List A, Recall 4, Word 2.", "preferredTerm": "ADNI AVLT - List A Recall 4 Word 2", "submissionValue": "AVL01-List A Recall 4 Word 2", "synonyms": ["AVL01-List A Recall 4 Word 2"]}, {"conceptId": "C101949", "definition": "Auditory Verbal Learning Test Version A - List A, Recall 4, Word 3.", "preferredTerm": "ADNI AVLT - List A Recall 4 Word 3", "submissionValue": "AVL01-List A Recall 4 Word 3", "synonyms": ["AVL01-List A Recall 4 Word 3"]}, {"conceptId": "C101950", "definition": "Auditory Verbal Learning Test Version A - List A, Recall 4, Word 4.", "preferredTerm": "ADNI AVLT - List A Recall 4 Word 4", "submissionValue": "AVL01-List A Recall 4 Word 4", "synonyms": ["AVL01-List A Recall 4 Word 4"]}, {"conceptId": "C101951", "definition": "Auditory Verbal Learning Test Version A - List A, Recall 4, Word 5.", "preferredTerm": "ADNI AVLT - List A Recall 4 Word 5", "submissionValue": "AVL01-List A Recall 4 Word 5", "synonyms": ["AVL01-List A Recall 4 Word 5"]}, {"conceptId": "C101952", "definition": "Auditory Verbal Learning Test Version A - List A, Recall 4, Word 6.", "preferredTerm": "ADNI AVLT - List A Recall 4 Word 6", "submissionValue": "AVL01-List A Recall 4 Word 6", "synonyms": ["AVL01-List A Recall 4 Word 6"]}, {"conceptId": "C101953", "definition": "Auditory Verbal Learning Test Version A - List A, Recall 4, Word 7.", "preferredTerm": "ADNI AVLT - List A Recall 4 Word 7", "submissionValue": "AVL01-List A Recall 4 Word 7", "synonyms": ["AVL01-List A Recall 4 Word 7"]}, {"conceptId": "C101954", "definition": "Auditory Verbal Learning Test Version A - List A, Recall 4, Word 8.", "preferredTerm": "ADNI AVLT - List A Recall 4 Word 8", "submissionValue": "AVL01-List A Recall 4 Word 8", "synonyms": ["AVL01-List A Recall 4 Word 8"]}, {"conceptId": "C101955", "definition": "Auditory Verbal Learning Test Version A - List A, Recall 4, Word 9.", "preferredTerm": "ADNI AVLT - List A Recall 4 Word 9", "submissionValue": "AVL01-List A Recall 4 Word 9", "synonyms": ["AVL01-List A Recall 4 Word 9"]}, {"conceptId": "C101979", "definition": "Auditory Verbal Learning Test Version A - The number of words recalled from List A, fifth attempt.", "preferredTerm": "ADNI AVLT - List A Recall 5 Total", "submissionValue": "AVL01-List A Recall 5 Total", "synonyms": ["AVL01-List A Recall 5 Total"]}, {"conceptId": "C101964", "definition": "Auditory Verbal Learning Test Version A - List A, Recall 5, Word 1.", "preferredTerm": "ADNI AVLT - List A Recall 5 Word 1", "submissionValue": "AVL01-List A Recall 5 Word 1", "synonyms": ["AVL01-List A Recall 5 Word 1"]}, {"conceptId": "C101973", "definition": "Auditory Verbal Learning Test Version A - List A, Recall 5, Word 10.", "preferredTerm": "ADNI AVLT - List A Recall 5 Word 10", "submissionValue": "AVL01-List A Recall 5 Word 10", "synonyms": ["AVL01-List A Recall 5 Word 10"]}, {"conceptId": "C101974", "definition": "Auditory Verbal Learning Test Version A - List A, Recall 5, Word 11.", "preferredTerm": "ADNI AVLT - List A Recall 5 Word 11", "submissionValue": "AVL01-List A Recall 5 Word 11", "synonyms": ["AVL01-List A Recall 5 Word 11"]}, {"conceptId": "C101975", "definition": "Auditory Verbal Learning Test Version A - List A, Recall 5, Word 12.", "preferredTerm": "ADNI AVLT - List A Recall 5 Word 12", "submissionValue": "AVL01-List A Recall 5 Word 12", "synonyms": ["AVL01-List A Recall 5 Word 12"]}, {"conceptId": "C101976", "definition": "Auditory Verbal Learning Test Version A - List A, Recall 5, Word 13.", "preferredTerm": "ADNI AVLT - List A Recall 5 Word 13", "submissionValue": "AVL01-List A Recall 5 Word 13", "synonyms": ["AVL01-List A Recall 5 Word 13"]}, {"conceptId": "C101977", "definition": "Auditory Verbal Learning Test Version A - List A, Recall 5, Word 14.", "preferredTerm": "ADNI AVLT - List A Recall 5 Word 14", "submissionValue": "AVL01-List A Recall 5 Word 14", "synonyms": ["AVL01-List A Recall 5 Word 14"]}, {"conceptId": "C101978", "definition": "Auditory Verbal Learning Test Version A - List A, Recall 5, Word 15.", "preferredTerm": "ADNI AVLT - List A Recall 5 Word 15", "submissionValue": "AVL01-List A Recall 5 Word 15", "synonyms": ["AVL01-List A Recall 5 Word 15"]}, {"conceptId": "C101965", "definition": "Auditory Verbal Learning Test Version A - List A, Recall 5, Word 2.", "preferredTerm": "ADNI AVLT - List A Recall 5 Word 2", "submissionValue": "AVL01-List A Recall 5 Word 2", "synonyms": ["AVL01-List A Recall 5 Word 2"]}, {"conceptId": "C101966", "definition": "Auditory Verbal Learning Test Version A - List A, Recall 5, Word 3.", "preferredTerm": "ADNI AVLT - List A Recall 5 Word 3", "submissionValue": "AVL01-List A Recall 5 Word 3", "synonyms": ["AVL01-List A Recall 5 Word 3"]}, {"conceptId": "C101967", "definition": "Auditory Verbal Learning Test Version A - List A, Recall 5, Word 4.", "preferredTerm": "ADNI AVLT - List A Recall 5 Word 4", "submissionValue": "AVL01-List A Recall 5 Word 4", "synonyms": ["AVL01-List A Recall 5 Word 4"]}, {"conceptId": "C101968", "definition": "Auditory Verbal Learning Test Version A - List A, Recall 5, Word 5.", "preferredTerm": "ADNI AVLT - List A Recall 5 Word 5", "submissionValue": "AVL01-List A Recall 5 Word 5", "synonyms": ["AVL01-List A Recall 5 Word 5"]}, {"conceptId": "C101969", "definition": "Auditory Verbal Learning Test Version A - List A, Recall 5, Word 6.", "preferredTerm": "ADNI AVLT - List A Recall 5 Word 6", "submissionValue": "AVL01-List A Recall 5 Word 6", "synonyms": ["AVL01-List A Recall 5 Word 6"]}, {"conceptId": "C101970", "definition": "Auditory Verbal Learning Test Version A - List A, Recall 5, Word 7.", "preferredTerm": "ADNI AVLT - List A Recall 5 Word 7", "submissionValue": "AVL01-List A Recall 5 Word 7", "synonyms": ["AVL01-List A Recall 5 Word 7"]}, {"conceptId": "C101971", "definition": "Auditory Verbal Learning Test Version A - List A, Recall 5, Word 8.", "preferredTerm": "ADNI AVLT - List A Recall 5 Word 8", "submissionValue": "AVL01-List A Recall 5 Word 8", "synonyms": ["AVL01-List A Recall 5 Word 8"]}, {"conceptId": "C101972", "definition": "Auditory Verbal Learning Test Version A - List A, Recall 5, Word 9.", "preferredTerm": "ADNI AVLT - List A Recall 5 Word 9", "submissionValue": "AVL01-List A Recall 5 Word 9", "synonyms": ["AVL01-List A Recall 5 Word 9"]}, {"conceptId": "C101996", "definition": "Auditory Verbal Learning Test Version A - The number of words recalled from List A, sixth attempt (after List B recall).", "preferredTerm": "ADNI AVLT - List A Recall 6 (After B) Total", "submissionValue": "AVL01-List A Recall 6 (After B) Total", "synonyms": ["AVL01-List A Recall 6 (After B) Total"]}, {"conceptId": "C101981", "definition": "Auditory Verbal Learning Test Version A - List A, Recall 6 (after B Recall), Word 1.", "preferredTerm": "ADNI AVLT - List A Recall 6 (After B) Word 1", "submissionValue": "AVL01-List A Recall 6 (After B) Word 1", "synonyms": ["AVL01-List A Recall 6 (After B) Word 1"]}, {"conceptId": "C101990", "definition": "Auditory Verbal Learning Test Version A - List A, Recall 6 (after B Recall), Word 10.", "preferredTerm": "ADNI AVLT - List A Recall 6 (After B) Word 10", "submissionValue": "AVL01-List A Recall 6 (After B) Word 10", "synonyms": ["AVL01-List A Recall 6 (After B) Word 10"]}, {"conceptId": "C101991", "definition": "Auditory Verbal Learning Test Version A - List A, Recall 6 (after B Recall), Word 11.", "preferredTerm": "ADNI AVLT - List A Recall 6 (After B) Word 11", "submissionValue": "AVL01-List A Recall 6 (After B) Word 11", "synonyms": ["AVL01-List A Recall 6 (After B) Word 11"]}, {"conceptId": "C101992", "definition": "Auditory Verbal Learning Test Version A - List A, Recall 6 (after B Recall), Word 12.", "preferredTerm": "ADNI AVLT - List A Recall 6 (After B) Word 12", "submissionValue": "AVL01-List A Recall 6 (After B) Word 12", "synonyms": ["AVL01-List A Recall 6 (After B) Word 12"]}, {"conceptId": "C101993", "definition": "Auditory Verbal Learning Test Version A - List A, Recall 6 (after B Recall), Word 13.", "preferredTerm": "ADNI AVLT - List A Recall 6 (After B) Word 13", "submissionValue": "AVL01-List A Recall 6 (After B) Word 13", "synonyms": ["AVL01-List A Recall 6 (After B) Word 13"]}, {"conceptId": "C101994", "definition": "Auditory Verbal Learning Test Version A - List A, Recall 6 (after B Recall), Word 14.", "preferredTerm": "ADNI AVLT - List A Recall 6 (After B) Word 14", "submissionValue": "AVL01-List A Recall 6 (After B) Word 14", "synonyms": ["AVL01-List A Recall 6 (After B) Word 14"]}, {"conceptId": "C101995", "definition": "Auditory Verbal Learning Test Version A - List A, Recall 6 (after B Recall), Word 15.", "preferredTerm": "ADNI AVLT - List A Recall 6 (After B) Word 15", "submissionValue": "AVL01-List A Recall 6 (After B) Word 15", "synonyms": ["AVL01-List A Recall 6 (After B) Word 15"]}, {"conceptId": "C101982", "definition": "Auditory Verbal Learning Test Version A - List A, Recall 6 (after B Recall), Word 2.", "preferredTerm": "ADNI AVLT - List A Recall 6 (After B) Word 2", "submissionValue": "AVL01-List A Recall 6 (After B) Word 2", "synonyms": ["AVL01-List A Recall 6 (After B) Word 2"]}, {"conceptId": "C101983", "definition": "Auditory Verbal Learning Test Version A - List A, Recall 6 (after B Recall), Word 3.", "preferredTerm": "ADNI AVLT - List A Recall 6 (After B) Word 3", "submissionValue": "AVL01-List A Recall 6 (After B) Word 3", "synonyms": ["AVL01-List A Recall 6 (After B) Word 3"]}, {"conceptId": "C101984", "definition": "Auditory Verbal Learning Test Version A - List A, Recall 6 (after B Recall), Word 4.", "preferredTerm": "ADNI AVLT - List A Recall 6 (After B) Word 4", "submissionValue": "AVL01-List A Recall 6 (After B) Word 4", "synonyms": ["AVL01-List A Recall 6 (After B) Word 4"]}, {"conceptId": "C101985", "definition": "Auditory Verbal Learning Test Version A - List A, Recall 6 (after B Recall), Word 5.", "preferredTerm": "ADNI AVLT - List A Recall 6 (After B) Word 5", "submissionValue": "AVL01-List A Recall 6 (After B) Word 5", "synonyms": ["AVL01-List A Recall 6 (After B) Word 5"]}, {"conceptId": "C101986", "definition": "Auditory Verbal Learning Test Version A - List A, Recall 6 (after B Recall), Word 6.", "preferredTerm": "ADNI AVLT - List A Recall 6 (After B) Word 6", "submissionValue": "AVL01-List A Recall 6 (After B) Word 6", "synonyms": ["AVL01-List A Recall 6 (After B) Word 6"]}, {"conceptId": "C101987", "definition": "Auditory Verbal Learning Test Version A - List A, Recall 6 (after B Recall), Word 7.", "preferredTerm": "ADNI AVLT - List A Recall 6 (After B) Word 7", "submissionValue": "AVL01-List A Recall 6 (After B) Word 7", "synonyms": ["AVL01-List A Recall 6 (After B) Word 7"]}, {"conceptId": "C101988", "definition": "Auditory Verbal Learning Test Version A - List A, Recall 6 (after B Recall), Word 8.", "preferredTerm": "ADNI AVLT - List A Recall 6 (After B) Word 8", "submissionValue": "AVL01-List A Recall 6 (After B) Word 8", "synonyms": ["AVL01-List A Recall 6 (After B) Word 8"]}, {"conceptId": "C101989", "definition": "Auditory Verbal Learning Test Version A - List A, Recall 6 (after B Recall), Word 9.", "preferredTerm": "ADNI AVLT - List A Recall 6 (After B) Word 9", "submissionValue": "AVL01-List A Recall 6 (After B) Word 9", "synonyms": ["AVL01-List A Recall 6 (After B) Word 9"]}, {"conceptId": "C102033", "definition": "Auditory Verbal Learning Test Version A - The number of intrusions on recognition test.", "preferredTerm": "ADNI AVLT - List A Recognition Intrusions", "submissionValue": "AVL01-List A Recognition Intrusions", "synonyms": ["AVL01-List A Recognition Intrusions"]}, {"conceptId": "C102032", "definition": "Auditory Verbal Learning Test Version A - The number of words correct on recognition test.", "preferredTerm": "ADNI AVLT - List A Recognition Total", "submissionValue": "AVL01-List A Recognition Total", "synonyms": ["AVL01-List A Recognition Total"]}, {"conceptId": "C102014", "definition": "Auditory Verbal Learning Test Version A - The number of intrusions while recalling List B.", "preferredTerm": "ADNI AVLT - List B Intrusions", "submissionValue": "AVL01-List B Intrusions", "synonyms": ["AVL01-List B Intrusions"]}, {"conceptId": "C102013", "definition": "Auditory Verbal Learning Test Version A - The number of words recalled from List B.", "preferredTerm": "ADNI AVLT - List B Recall Total", "submissionValue": "AVL01-List B Recall Total", "synonyms": ["AVL01-List B Recall Total"]}, {"conceptId": "C101998", "definition": "Auditory Verbal Learning Test Version A - List B, Word 1.", "preferredTerm": "ADNI AVLT - List B Recall Word 1", "submissionValue": "AVL01-List B Recall Word 1", "synonyms": ["AVL01-List B Recall Word 1"]}, {"conceptId": "C102007", "definition": "Auditory Verbal Learning Test Version A - List B, Word 10.", "preferredTerm": "ADNI AVLT - List B Recall Word 10", "submissionValue": "AVL01-List B Recall Word 10", "synonyms": ["AVL01-List B Recall Word 10"]}, {"conceptId": "C102008", "definition": "Auditory Verbal Learning Test Version A - List B, Word 11.", "preferredTerm": "ADNI AVLT - List B Recall Word 11", "submissionValue": "AVL01-List B Recall Word 11", "synonyms": ["AVL01-List B Recall Word 11"]}, {"conceptId": "C102009", "definition": "Auditory Verbal Learning Test Version A - List B, Word 12.", "preferredTerm": "ADNI AVLT - List B Recall Word 12", "submissionValue": "AVL01-List B Recall Word 12", "synonyms": ["AVL01-List B Recall Word 12"]}, {"conceptId": "C102010", "definition": "Auditory Verbal Learning Test Version A - List B, Word 13.", "preferredTerm": "ADNI AVLT - List B Recall Word 13", "submissionValue": "AVL01-List B Recall Word 13", "synonyms": ["AVL01-List B Recall Word 13"]}, {"conceptId": "C102011", "definition": "Auditory Verbal Learning Test Version A - List B, Word 14.", "preferredTerm": "ADNI AVLT - List B Recall Word 14", "submissionValue": "AVL01-List B Recall Word 14", "synonyms": ["AVL01-List B Recall Word 14"]}, {"conceptId": "C102012", "definition": "Auditory Verbal Learning Test Version A - List B, Word 15.", "preferredTerm": "ADNI AVLT - List B Recall Word 15", "submissionValue": "AVL01-List B Recall Word 15", "synonyms": ["AVL01-List B Recall Word 15"]}, {"conceptId": "C101999", "definition": "Auditory Verbal Learning Test Version A - List B, Word 2.", "preferredTerm": "ADNI AVLT - List B Recall Word 2", "submissionValue": "AVL01-List B Recall Word 2", "synonyms": ["AVL01-List B Recall Word 2"]}, {"conceptId": "C102000", "definition": "Auditory Verbal Learning Test Version A - List B, Word 3.", "preferredTerm": "ADNI AVLT - List B Recall Word 3", "submissionValue": "AVL01-List B Recall Word 3", "synonyms": ["AVL01-List B Recall Word 3"]}, {"conceptId": "C102001", "definition": "Auditory Verbal Learning Test Version A - List B, Word 4.", "preferredTerm": "ADNI AVLT - List B Recall Word 4", "submissionValue": "AVL01-List B Recall Word 4", "synonyms": ["AVL01-List B Recall Word 4"]}, {"conceptId": "C102002", "definition": "Auditory Verbal Learning Test Version A - List B, Word 5.", "preferredTerm": "ADNI AVLT - List B Recall Word 5", "submissionValue": "AVL01-List B Recall Word 5", "synonyms": ["AVL01-List B Recall Word 5"]}, {"conceptId": "C102003", "definition": "Auditory Verbal Learning Test Version A - List B, Word 6.", "preferredTerm": "ADNI AVLT - List B Recall Word 6", "submissionValue": "AVL01-List B Recall Word 6", "synonyms": ["AVL01-List B Recall Word 6"]}, {"conceptId": "C102004", "definition": "Auditory Verbal Learning Test Version A - List B, Word 7.", "preferredTerm": "ADNI AVLT - List B Recall Word 7", "submissionValue": "AVL01-List B Recall Word 7", "synonyms": ["AVL01-List B Recall Word 7"]}, {"conceptId": "C102005", "definition": "Auditory Verbal Learning Test Version A - List B, Word 8.", "preferredTerm": "ADNI AVLT - List B Recall Word 8", "submissionValue": "AVL01-List B Recall Word 8", "synonyms": ["AVL01-List B Recall Word 8"]}, {"conceptId": "C102006", "definition": "Auditory Verbal Learning Test Version A - List B, Word 9.", "preferredTerm": "ADNI AVLT - List B Recall Word 9", "submissionValue": "AVL01-List B Recall Word 9", "synonyms": ["AVL01-List B Recall Word 9"]}]}, {"conceptId": "C66781", "definition": "Those units of time that are routinely used to express the age of a subject.", "extensible": "false", "name": "Age Unit", "preferredTerm": "CDISC SDTM Age Unit Terminology", "submissionValue": "AGEU", "synonyms": ["Age Unit"], "terms": [{"conceptId": "C25301", "definition": "A unit of measurement of time equal to 24 hours.", "preferredTerm": "Day", "submissionValue": "DAYS"}, {"conceptId": "C25529", "definition": "A unit of measurement of time equal to 60 minutes.", "preferredTerm": "Hour", "submissionValue": "HOURS", "synonyms": ["h", "Hours", "hr"]}, {"conceptId": "C29846", "definition": "One of the 12 divisions of a year as determined by a calendar. It corresponds to the unit of time of approximately to one cycle of the moon's phases, about 30 days or 4 weeks. (NCI)", "preferredTerm": "Month", "submissionValue": "MONTHS", "synonyms": ["Month"]}, {"conceptId": "C29844", "definition": "Any period of seven consecutive days. (NCI)", "preferredTerm": "Week", "submissionValue": "WEEKS", "synonyms": ["Week"]}, {"conceptId": "C29848", "definition": "The period of time that it takes for Earth to make a complete revolution around the sun, approximately 365 days; a specific one year period. (NCI)", "preferredTerm": "Year", "submissionValue": "YEARS", "synonyms": ["Year"]}]}, {"conceptId": "C112435", "definition": "Airway Questionnaire 20 test code.", "extensible": "false", "name": "Airway Questionnaire 20 Questionnaire Test Code", "preferredTerm": "CDISC Questionnaire AQ20 Test Code Terminology", "submissionValue": "AQ01TC", "synonyms": ["Airway Questionnaire 20 Questionnaire Test Code"], "terms": [{"conceptId": "C112529", "definition": "Airway Questionnaire 20 - Do you cough often during the day?", "preferredTerm": "AQ20 - Cough Often During the Day", "submissionValue": "AQ0101", "synonyms": ["AQ01-Cough Often During Day"]}, {"conceptId": "C112530", "definition": "Airway Questionnaire 20 - Does your chest trouble often make you feel restless?", "preferredTerm": "AQ20 - Chest Trouble Make You Feel Restless", "submissionValue": "AQ0102", "synonyms": ["AQ01-Feel Restless Due to Chest Trouble"]}, {"conceptId": "C112531", "definition": "Airway Questionnaire 20 - Does gardening make you breathless?", "preferredTerm": "AQ20 - Gardening Make You Breathless", "submissionValue": "AQ0103", "synonyms": ["AQ01-Gardening Make You Breathless"]}, {"conceptId": "C112532", "definition": "Airway Questionnaire 20 - Do you worry when going to a friend's house that there might be something there that will upset your chest?", "preferredTerm": "AQ20 - Worry When Going to Friend House Something Will Upset Your Chest", "submissionValue": "AQ0104", "synonyms": ["AQ01-Chest Upset at Friend House"]}, {"conceptId": "C112533", "definition": "Airway Questionnaire 20 - Do you get chest problems when you come into contact with strong smells, exhaust fumes, cigarette smoke, perfume etc?", "preferredTerm": "AQ20 - Get Chest Problems When Contact With Strong Smells", "submissionValue": "AQ0105", "synonyms": ["AQ01-Chest Prob Smell/Fume/Smoke/Perfume"]}, {"conceptId": "C112534", "definition": "Airway Questionnaire 20 - Does your partner find your chest trouble upsetting?", "preferredTerm": "AQ20 - Partner Find Your Chest Trouble Upsetting", "submissionValue": "AQ0106", "synonyms": ["AQ01-Partner Upset by Your Chest Trouble"]}, {"conceptId": "C112535", "definition": "Airway Questionnaire 20 - Do you feel breathless when trying to sleep?", "preferredTerm": "AQ20 - Feel Breathless When Trying to Sleep", "submissionValue": "AQ0107", "synonyms": ["AQ01-Breathless When 